Folder: MASTER-THESIS/EXPERIMENTAL/Data/Cell-cycling/E-measurements/C-cell

Note: EXPERIMENTAL/Data/Cell-cycling/E-measurements/C-cell/2024-04-25_E-measurements_sample-Ionic-electrolyte-01_C-cell_Cu-Li-Cellgard2400-separator_25muL-ionic-electrolyte_outside-glovebox_sigma-0.02_added-OCV-0.1s_01_OCV_C01.txt
time/s	<Ewe/V>	error	
9.999999747378752E+000	2.5488954E+000	0
1.999999949475750E+001	2.5500729E+000	0
2.999999924213625E+001	2.5511670E+000	0
3.999999898951501E+001	2.5522559E+000	0
4.999999873689376E+001	2.5534222E+000	0
5.999979848427756E+001	2.5544100E+000	0

Note: EXPERIMENTAL/Data/Cell-cycling/E-measurements/C-cell/2024-04-25_E-measurements_sample-LiPF6-electrolyte-01_C-cell_Cu-Li-Cellgard2400-separator_25muL-LiPF6_outside-glovebox_sigma-0.02_added-OCV-0.1s_01_OCV_C02.txt
time/s	<Ewe/V>	error	
9.999999747378752E+000	3.2439177E+000	0
1.999999949475750E+001	3.2438388E+000	0
2.999999924213625E+001	3.2437534E+000	0
3.999999898951501E+001	3.2436728E+000	0
4.999999873689376E+001	3.2435868E+000	0
5.999979848427756E+001	3.2435012E+000	0

Note: EXPERIMENTAL/Data/Cell-cycling/E-measurements/C-cell/2024-04-26_E-measurements_sample-Ionic-electrolyte-02_C-cell_Cu-Li-Cellgard2400-separator_25muL-ionic-electrolyte_outside-glovebox_sigma-0.02_added-OCV-0.1s_01_OCV_C02.txt
time/s	<Ewe/V>	error	
9.999999747378752E+000	2.9033298E+000	0
1.999999949475750E+001	2.9037838E+000	0
2.999999924213625E+001	2.9041786E+000	0
3.999999898951501E+001	2.9045503E+000	0
4.999999873689376E+001	2.9048626E+000	0
5.999979848427756E+001	2.9051490E+000	0

Note: EXPERIMENTAL/Data/Cell-cycling/E-measurements/C-cell/2024-04-29_E-measurements_sample-Ionic-04_C-cell_Cu-Li_glassfiber-separator_25muL-ionic-electrolyte_outside-glovebox_sigma-0.02_added-OCV-0.1s_01_OCV_C02.txt
time/s	<Ewe/V>	error	
9.999999747378752E+000	2.7502041E+000	0
1.999999949475750E+001	2.7496085E+000	0
2.999999924213625E+001	2.7490370E+000	0
3.999999898951501E+001	2.7485485E+000	0
4.999999873689376E+001	2.7480011E+000	0
5.999979848427756E+001	2.7474060E+000	0

Note: EXPERIMENTAL/Data/Cell-cycling/E-measurements/C-cell/2024-05-01_E-measurements_sample-LiPF6-02_C-cell_Cu-Li_Cellgard2400_25muL-LiPF6-electrolyte_outside-glovebox_sigma-0.02_added-OCV-0.1s_01_OCV_C01.txt
time/s	<Ewe/V>	error	
9.999999747378752E+000	2.6666903E+000	0
1.999999949475750E+001	2.6674724E+000	0
2.999999924213625E+001	2.6682377E+000	0
3.999999898951501E+001	2.6689892E+000	0
4.999999873689376E+001	2.6697085E+000	0
5.999979848427756E+001	2.6704152E+000	0

File: 2024-04-25_E-measurements_sample-LiFSI-electrolyte-01_C-cell_Cu-Li-Cellgard2400-separator_25muL-LiFSI-in-DME_outside-glovebox_sigma-0.02_added-OCV-0.1s_02_MB_C02.txt
time/s	Ewe/V	I/mA	error
60.053	2.55262	-0.0250311	0
60.1736	0.00940858	-10.9106	0
60.1744	0.00937041	-10.7859	0
60.1752	0.00929405	-10.6675	0
60.176	0.00927497	-10.5472	0
60.1768	0.00937041	-10.4403	0
60.1776	0.00956129	-10.3258	0
60.1786	0.00940858	-10.194	0
60.1796	0.00933223	-10.0515	0
60.1806	0.00940858	-9.92165	0
60.1814	0.0093895	-9.81729	0
60.1824	0.0093895	-9.69637	0
60.1836	0.00942767	-9.55064	0
60.1848	0.00946585	-9.403	0
60.186	0.00942767	-9.26236	0
60.1872	0.00925588	-9.12999	0
60.1884	0.00937041	-8.99572	0
60.1896	0.00935132	-8.86717	0
60.1908	0.00946585	-8.73544	0
60.192	0.0093895	-8.61261	0
60.1932	0.00931314	-8.48916	0
60.1946	0.00929405	-8.36252	0
60.1958	0.00940858	-8.24797	0
60.1972	0.00935132	-8.12578	0
60.1984	0.00937041	-8.00805	0
60.1996	0.00940858	-7.9005	0
60.2012	0.00935132	-7.7675	0
60.2028	0.0093895	-7.63641	0
60.2044	0.0093895	-7.49577	0
60.2062	0.00940858	-7.3704	0
60.2076	0.00940858	-7.26158	0
60.2092	0.00931314	-7.14766	0
60.2108	0.00937041	-7.02993	0
60.2124	0.00944676	-6.91857	0
60.214	0.00935132	-6.8072	0
60.2156	0.00929405	-6.70347	0
60.2174	0.00948494	-6.58383	0
60.2194	0.00942767	-6.46483	0
60.2212	0.00935132	-6.35664	0
60.2232	0.0093895	-6.24018	0
60.2254	0.00940858	-6.11673	0
60.2274	0.00929405	-6.00727	0
60.2296	0.00937041	-5.89272	0
60.232	0.00927497	-5.77308	0
60.2342	0.00940858	-5.66617	0
60.2366	0.00931314	-5.55416	0
60.239	0.00931314	-5.44343	0
60.2416	0.00940858	-5.33143	0
60.2444	0.00940858	-5.21943	0
60.247	0.00929405	-5.11315	0
60.2498	0.00942767	-5.00115	0
60.2532	0.00944676	-4.88087	0
60.2564	0.0093895	-4.76632	0
60.2594	0.00940858	-4.66069	0
60.2628	0.00942767	-4.54995	0
60.2662	0.00933223	-4.44813	0
60.2698	0.00952311	-4.34504	0
60.273	0.00933223	-4.4012	0
60.306	0.00940858	-3.51823	0
60.3116	0.00937041	-3.41522	0
60.3178	0.00929405	-3.30916	0
60.3242	0.0093895	-3.20653	0
60.3312	0.00946585	-3.10117	0
60.3386	0.00927497	-2.99746	0
60.3464	0.00942767	-2.89547	0
60.3548	0.00940858	-2.79285	0
60.364	0.00940858	-2.68907	0
60.374	0.00948494	-2.58575	0
60.3846	0.00940858	-2.48408	0
60.3964	0.00933223	-2.38043	0
60.409	0.00937041	-2.27908	0
60.423	0.00942767	-2.17715	0
60.4382	0.00940858	-2.07599	0
60.4552	0.00946585	-1.97508	0
60.474	0.00944676	-1.87322	0
60.4952	0.0093895	-1.77205	0
60.519	0.00946585	-1.67146	0
60.5464	0.0092177	-1.57055	0
60.578	0.00937041	-1.46882	0
60.6146	0.00946585	-1.36734	0
60.658	0.00931314	-1.2663	0
60.7096	0.00944676	-1.16616	0
60.7726	0.00944676	-1.0655	0
60.8512	0.00937041	-0.965358	0
60.9518	0.00931314	-0.864576	0
61.087	0.00940858	-0.763668	0
61.2728	0.00933223	-0.663078	0
61.5422	0.00940858	-0.562551	0
61.9614	0.00935132	-0.462469	0
62.7206	0.0093895	-0.362306	0
64.2918	0.0093895	-0.262225	0
65.0534	0.00944676	-0.235298	0
72.4614	0.00937041	-0.135281	0
92.4614	0.00944676	-0.0767044	0
112.461	0.00933223	-0.0529287	0
132.461	0.00935132	-0.0414234	0
152.461	0.0093895	-0.0342302	0
172.461	0.00940858	-0.0293718	0
192.461	0.00927497	-0.0258	0
212.461	0.00927497	-0.0230886	0
232.461	0.00933223	-0.0209518	0
252.461	0.0093895	-0.019144	0
272.461	0.00933223	-0.0177886	0
292.461	0.00929405	-0.0165121	0
312.461	0.00946585	-0.0153947	0
332.461	0.00942767	-0.014514	0
352.461	0.0093895	-0.01373	0
372.461	0.00931314	-0.0130606	0
392.461	0.00937041	-0.0124275	0
412.461	0.00929405	-0.0118974	0
432.461	0.00940858	-0.0113088	0
452.461	0.00931314	-0.0108735	0
472.461	0.00935132	-0.0103759	0
492.461	0.00935132	-0.00997057	0
512.461	0.00935132	-0.00972876	0
532.461	0.00933223	-0.00937114	0
552.461	0.00937041	-0.00904915	0
572.461	0.00931314	-0.00883344	0
592.461	0.0093895	-0.00846691	0
612.461	0.00937041	-0.00825437	0
632.461	0.00937041	-0.00792029	0
652.461	0.0093895	-0.0078013	0
672.461	0.00940858	-0.0075334	0
692.461	0.0093895	-0.00746086	0
712.461	0.00935132	-0.00711915	0
732.461	0.00937041	-0.00700015	0
752.461	0.00940858	-0.00675071	0
772.461	0.00942767	-0.00667435	0
792.461	0.00935132	-0.00645227	0
812.461	0.0093895	-0.00642236	0
832.461	0.00931314	-0.00622701	0
852.461	0.0093895	-0.00602592	0
872.461	0.00935132	-0.00589675	0
892.461	0.00940858	-0.00589484	0
912.461	0.0093895	-0.00578666	0
932.461	0.00937041	-0.00553022	0
952.461	0.00935132	-0.00547231	0
972.461	0.00933223	-0.00534568	0
992.461	0.00935132	-0.00527823	0
1012.46	0.00942767	-0.00510769	0
1032.46	0.00927497	-0.00514905	0
1052.46	0.00944676	-0.00489006	0
1072.46	0.0093895	-0.00490534	0
1092.46	0.00944676	-0.00478952	0
1112.46	0.00948494	-0.00476407	0
1132.46	0.00940858	-0.00453244	0
1152.46	0.00935132	-0.00456808	0
1172.46	0.00940858	-0.00449546	0
1192.46	0.00933223	-0.00440727	0
1212.46	0.00935132	-0.00436168	0
1232.46	0.0093895	-0.00428597	0
1252.46	0.00935132	-0.00420727	0
1272.46	0.00937041	-0.00411933	0
1292.46	0.00931314	-0.00411685	0
1312.46	0.00940858	-0.0040305	0
1332.27	0.00933223	-0.00392372	0
1332.27	0.00940858	-0.00393339	0

File: 2024-04-25_E-measurements_sample-LiPF6-electrolyte-01_C-cell_Cu-Li-Cellgard2400-separator_25muL-LiPF6_outside-glovebox_sigma-0.02_added-OCV-0.1s_02_MB_C02.txt
time/s	Ewe/V	I/mA	error
60.053	3.24005	-0.0250311	0
60.1738	0.00937041	-13.7756	0
60.1748	0.00935132	-13.6655	0
60.1758	0.00948494	-13.5497	0
60.177	0.00927497	-13.4243	0
60.1782	0.00942767	-13.2868	0
60.1792	0.00927497	-13.1742	0
60.1804	0.0093895	-13.0584	0
60.1816	0.00937041	-12.9362	0
60.1828	0.00940858	-12.807	0
60.184	0.00940858	-12.6925	0
60.1854	0.00940858	-12.5499	0
60.1866	0.00944676	-12.4296	0
60.1878	0.0093895	-12.3183	0
60.189	0.0093895	-12.2056	0
60.1902	0.00948494	-12.0873	0
60.1914	0.00959947	-11.9772	0
60.1926	0.00944676	-11.8722	0
60.194	0.0093895	-11.7449	0
60.1954	0.00937041	-11.6208	0
60.1966	0.00948494	-11.5113	0
60.198	0.00942767	-11.3955	0
60.1994	0.00940858	-11.2752	0
60.2006	0.00950403	-11.1741	0
60.202	0.0093895	-11.057	0
60.2034	0.0093895	-10.943	0
60.2048	0.00950403	-10.8342	0
60.2062	0.0093895	-10.7279	0
60.2078	0.00940858	-10.5943	0
60.2094	0.00933223	-10.4728	0
60.211	0.00940858	-10.3576	0
60.2124	0.00942767	-10.2507	0
60.214	0.0093895	-10.1374	0
60.2156	0.00946585	-10.0146	0
60.2174	0.00933223	-9.89429	0
60.219	0.0093895	-9.78165	0
60.2206	0.00944676	-9.66901	0
60.2226	0.00946585	-9.54491	0
60.2242	0.00940858	-9.43864	0
60.2258	0.00940858	-9.33682	0
60.2276	0.0093895	-9.23181	0
60.2296	0.0093895	-9.10836	0
60.2312	0.00944676	-9.00335	0
60.2334	0.00942767	-8.87799	0
60.2354	0.00942767	-8.76598	0
60.2374	0.00933223	-8.65334	0
60.2394	0.00937041	-8.54261	0
60.2416	0.0093895	-8.42806	0
60.2436	0.00946585	-8.32115	0
60.246	0.00946585	-8.20788	0
60.2484	0.00942767	-8.08506	0
60.2506	0.00942767	-7.97687	0
60.253	0.00937041	-7.86996	0
60.2554	0.0095422	-7.75732	0
60.2582	0.00950403	-7.62877	0
60.2608	0.00942767	-7.51677	0
60.2634	0.00933223	-7.39904	0
60.2664	0.0093895	-7.28258	0
60.2692	0.00940858	-7.17376	0
60.2718	0.00950403	-7.06939	0
60.2746	0.00927497	-6.9663	0
60.2772	0.00940858	-6.8632	0
60.2802	0.00935132	-6.75884	0
60.2832	0.00944676	-6.65065	0
60.2866	0.00940858	-6.53674	0
60.2902	0.00942767	-6.42219	0
60.2936	0.00950403	-6.3121	0
60.2974	0.00935132	-6.20264	0
60.301	0.00935132	-6.09127	0
60.305	0.00940858	-5.98181	0
60.3086	0.00940858	-5.87999	0
60.3128	0.00944676	-5.77181	0
60.317	0.00935132	-5.66299	0
60.3214	0.00931314	-5.55544	0
60.3258	0.00935132	-5.44662	0
60.3306	0.00937041	-5.33461	0
60.336	0.00937041	-5.21943	0
60.3414	0.00946585	-5.11252	0
60.3466	0.00944676	-5.00879	0
60.3522	0.00937041	-4.90251	0
60.358	0.0093895	-4.80069	0
60.3648	0.00927497	-4.68423	0
60.371	0.00944676	-4.57859	0
60.3782	0.00942767	-4.47041	0
60.3854	0.0093895	-4.36668	0
60.393	0.00942767	-4.26295	0
60.402	0.0093895	-4.14649	0
60.4104	0.00937041	-4.03639	0
60.4194	0.00935132	-3.93585	0
60.4282	0.0093895	-3.83403	0
60.4388	0.00942767	-3.72902	0
60.4492	0.00935132	-3.62084	0
60.4616	0.00935132	-3.51329	0
60.5036	0.00929405	-3.2031	0
60.5184	0.00940858	-3.10041	0
60.5342	0.00942767	-2.99912	0
60.551	0.0093895	-2.89789	0
60.5694	0.00946585	-2.79743	0
60.5894	0.00940858	-2.69575	0
60.6108	0.00940858	-2.59561	0
60.6344	0.00937041	-2.49476	0
60.6608	0.00937041	-2.3922	0
60.6896	0.00946585	-2.29117	0
60.7222	0.00937041	-2.1893	0
60.758	0.00935132	-2.08897	0
60.799	0.0093895	-1.98698	0
60.8456	0.00929405	-1.88651	0
60.8984	0.00940858	-1.78637	0
60.9594	0.00942767	-1.68565	0
61.0318	0.00942767	-1.58532	0
61.1176	0.00940858	-1.48523	0
61.2202	0.00937041	-1.38503	0
61.3466	0.00944676	-1.28482	0
61.5046	0.00942767	-1.18461	0
61.7056	0.00944676	-1.08421	0
61.969	0.00931314	-0.984063	0
62.3192	0.00929405	-0.883727	0
62.8128	0.00946585	-0.782819	0
63.5218	0.00940858	-0.68261	0
64.5904	0.00935132	-0.582338	0
65.0534	0.00942767	-0.551989	0
67.0258	0.00946585	-0.451971	0
70.6844	0.00933223	-0.35193	0
77.7684	0.00942767	-0.251856	0
93.6894	0.00933223	-0.151826	0
113.689	0.00937041	-0.0986405	0
133.689	0.00931314	-0.0731397	0
153.689	0.00929405	-0.0580085	0
173.689	0.00942767	-0.047989	0
193.689	0.00950403	-0.0409397	0
213.689	0.00946585	-0.0355061	0
233.689	0.0093895	-0.0314221	0
253.689	0.00933223	-0.0279337	0
273.689	0.00937041	-0.0252617	0
293.689	0.00929405	-0.0227208	0
313.689	0.00929405	-0.0208945	0
333.689	0.00937041	-0.0191885	0
353.689	0.00937041	-0.0177275	0
373.689	0.00944676	-0.0163428	0
393.689	0.0093895	-0.0152305	0
413.689	0.0093895	-0.0142194	0
433.689	0.00940858	-0.0133546	0
453.689	0.00940858	-0.0125115	0
473.689	0.00944676	-0.0119661	0
493.689	0.00927497	-0.0111071	0
513.689	0.00933223	-0.0105299	0
533.689	0.00937041	-0.0100081	0
553.689	0.00933223	-0.00952068	0
573.689	0.00935132	-0.00901415	0
593.689	0.00935132	-0.00852099	0
613.689	0.00937041	-0.00822955	0
633.689	0.0093895	-0.00781593	0
653.689	0.00937041	-0.00753913	0
673.689	0.0093895	-0.00726805	0
693.689	0.00933223	-0.00683471	0
713.689	0.0093895	-0.00668644	0
733.689	0.00944676	-0.00646436	0
753.689	0.00933223	-0.00618755	0
773.689	0.00935132	-0.00628237	0
793.689	0.00940858	-0.00578539	0
813.689	0.00931314	-0.00562758	0
833.689	0.00935132	-0.00542586	0
853.689	0.00937041	-0.00521269	0
873.689	0.00937041	-0.0050256	0
893.689	0.0093895	-0.00489452	0
913.689	0.0093895	-0.00477807	0
933.689	0.00944676	-0.00454072	0
953.689	0.00935132	-0.00457635	0
973.689	0.00948494	-0.00438989	0
993.689	0.00933223	-0.00426483	0
1013.69	0.00929405	-0.00416537	0
1033.69	0.00944676	-0.00405425	0
1053.69	0.00937041	-0.00394326	0
1054.31	0.0092177	-0.00390977	0

File: 2024-04-26_E-measurements_sample-Ionic-electrolyte-02_C-cell_Cu-Li-Cellgard2400-separator_25muL-ionic-electrolyte_outside-glovebox_sigma-0.02_added-OCV-0.1s_02_MB_C02.txt
time/s	Ewe/V	I/mA	error
60.053	2.65335	-0.0250311	0
60.1132	0.00928675	-0.549717	0
60.1286	0.00938219	-0.499397	0
60.15	0.00934401	-0.449337	0
60.1806	0.0093631	-0.399201	0
60.2258	0.00945854	-0.349123	0
60.2962	0.00930584	-0.299051	0
60.4146	0.00926766	-0.248991	0
60.641	0.00940128	-0.198976	0
61.1804	0.00947763	-0.148961	0
63.0798	0.00930584	-0.0989524	0
65.0528	0.00932492	-0.0818352	0
65.0534	0.00947763	-0.0817779	0
75.0534	0.00930584	-0.0574101	0
85.0534	0.00930584	-0.0505925	0
95.0534	0.00942037	-0.047206	0
105.053	0.00932492	-0.0451536	0
115.053	0.00928675	-0.0434724	0
125.053	0.00926766	-0.0421093	0
135.053	0.00938219	-0.0409321	0
145.053	0.0093631	-0.0398898	0
155.053	0.00932492	-0.0389372	0
165.053	0.00934401	-0.0380482	0
175.053	0.00932492	-0.0372382	0
185.053	0.00934401	-0.0364548	0
195.053	0.0093631	-0.0357161	0
205.053	0.00919131	-0.0350237	0
215.053	0.00926766	-0.0342729	0
225.053	0.00928675	-0.0335894	0
235.053	0.00938219	-0.0330002	0
245.053	0.00932492	-0.0324345	0
255.053	0.00934401	-0.0319165	0
265.053	0.00922948	-0.0314628	0
275.053	0.00947763	-0.0308226	0
285.053	0.00930584	-0.0302544	0
295.053	0.00921039	-0.0297192	0
305.053	0.00938219	-0.0291504	0
315.053	0.00926766	-0.028619	0
325.053	0.00938219	-0.02815	0
335.053	0.00942037	-0.0276537	0
345.053	0.00932492	-0.027214	0
355.053	0.00932492	-0.026801	0
365.053	0.00932492	-0.0264001	0
375.053	0.00938219	-0.0260202	0
385.053	0.00942037	-0.0256492	0
395.053	0.00934401	-0.0252846	0
405.053	0.00926766	-0.0249486	0
415.053	0.00947763	-0.0246222	0
425.053	0.00934401	-0.024311	0
435.053	0.00930584	-0.0239744	0
445.053	0.00932492	-0.0236365	0
455.053	0.00934401	-0.0233209	0
465.053	0.0093631	-0.0230186	0
475.053	0.00947763	-0.0227393	0
485.053	0.00932492	-0.0224275	0
495.053	0.00932492	-0.0221379	0
505.053	0.00938219	-0.021849	0
515.053	0.00934401	-0.0215525	0
525.053	0.00938219	-0.0213037	0
535.053	0.00934401	-0.0210135	0
545.053	0.00938219	-0.0207145	0
555.053	0.00932492	-0.020451	0
565.053	0.00934401	-0.0201971	0
575.053	0.00924857	-0.0199216	0
585.053	0.00928675	-0.0196906	0
595.053	0.00942037	-0.0194297	0
605.053	0.00924857	-0.0191892	0
615.053	0.00940128	-0.0189416	0
625.053	0.00938219	-0.0187017	0
635.053	0.00934401	-0.0184835	0
645.053	0.00934401	-0.0182455	0
655.053	0.00932492	-0.0180247	0
665.053	0.00930584	-0.017814	0
675.053	0.0093631	-0.0175818	0
685.053	0.0093631	-0.017382	0
695.053	0.00930584	-0.0171453	0
705.053	0.0093631	-0.0169461	0
715.053	0.00924857	-0.0167488	0
725.053	0.00928675	-0.0165566	0
735.053	0.00938219	-0.0163753	0
745.053	0.00930584	-0.0161723	0
755.053	0.00922948	-0.0159776	0
765.053	0.00930584	-0.0157981	0
775.053	0.00934401	-0.015613	0
785.053	0.00951581	-0.015431	0
795.053	0.00934401	-0.0152547	0
805.053	0.00924857	-0.0150848	0
815.053	0.00932492	-0.0149041	0
825.053	0.00928675	-0.0147463	0
835.053	0.0093631	-0.0145706	0
845.053	0.00924857	-0.014416	0
855.053	0.0093631	-0.0142544	0
865.053	0.00932492	-0.0140934	0
875.053	0.00928675	-0.0139356	0
885.053	0.00930584	-0.0137899	0
895.053	0.00924857	-0.0136429	0
905.053	0.00926766	-0.0134927	0
915.053	0.00928675	-0.0133361	0
925.053	0.00934401	-0.0131949	0
935.053	0.00928675	-0.0130632	0
945.053	0.00928675	-0.0129206	0
955.053	0.00940128	-0.0127806	0
965.053	0.00930584	-0.0126514	0
975.053	0.00921039	-0.0125159	0
985.053	0.00930584	-0.0123886	0
995.053	0.00934401	-0.012255	0
1005.05	0.0093631	-0.0121405	0
1015.05	0.00942037	-0.0120113	0
1025.05	0.00947763	-0.0118853	0
1035.05	0.00926766	-0.0117752	0
1045.05	0.00926766	-0.0116619	0
1055.05	0.00921039	-0.0115391	0
1065.05	0.0093631	-0.0114278	0
1075.05	0.00938219	-0.011326	0
1085.05	0.0093631	-0.0112127	0
1095.05	0.00934401	-0.0110969	0
1105.05	0.00928675	-0.0110002	0
1115.05	0.0093631	-0.0108933	0
1125.05	0.00932492	-0.0107921	0
1135.05	0.00930584	-0.0106794	0
1145.05	0.00924857	-0.010584	0
1155.05	0.00938219	-0.0104796	0
1165.05	0.00932492	-0.0103905	0
1175.05	0.00930584	-0.0102913	0
1185.05	0.0093631	-0.0101799	0
1195.05	0.00921039	-0.0101023	0
1205.05	0.00926766	-0.0099992	0
1215.05	0.00932492	-0.00990121	0
1225.05	0.00922948	-0.0098083	0
1235.05	0.00940128	-0.00973385	0
1245.05	0.00932492	-0.00964667	0
1255.05	0.00940128	-0.00956013	0
1265.05	0.00940128	-0.00946341	0
1275.05	0.00930584	-0.00938259	0
1285.05	0.00940128	-0.00929987	0
1295.05	0.0093631	-0.00919678	0
1305.05	0.00934401	-0.00913633	0
1315.05	0.00940128	-0.00905361	0
1325.05	0.00932492	-0.00895434	0
1335.05	0.00926766	-0.00889834	0
1345.05	0.00940128	-0.00880925	0
1355.05	0.00932492	-0.00872717	0
1365.05	0.0093631	-0.00865081	0
1375.05	0.00924857	-0.00858081	0
1385.05	0.00934401	-0.00848791	0
1395.05	0.00930584	-0.00842682	0
1405.05	0.00934401	-0.00834791	0
1415.05	0.00932492	-0.00827282	0
1425.05	0.00930584	-0.00819837	0
1435.05	0.00932492	-0.00813474	0
1445.05	0.00932492	-0.00806474	0
1455.05	0.00932492	-0.00799411	0
1465.05	0.00930584	-0.00792984	0
1475.05	0.00938219	-0.00784712	0
1485.05	0.00928675	-0.00778475	0
1495.05	0.00942037	-0.0077313	0
1505.05	0.00930584	-0.00765367	0
1515.05	0.00930584	-0.00758685	0
1525.05	0.00928675	-0.00751622	0
1535.05	0.00938219	-0.00746086	0
1545.05	0.00924857	-0.00739277	0
1555.05	0.00928675	-0.00733423	0
1565.05	0.00934401	-0.00728778	0
1575.05	0.00928675	-0.00720887	0
1585.05	0.00930584	-0.00715606	0
1595.05	0.0093631	-0.00709369	0
1605.05	0.00926766	-0.00702879	0
1615.05	0.00934401	-0.00697215	0
1625.05	0.00934401	-0.00691488	0
1635.05	0.0093631	-0.00685889	0
1645.05	0.0093631	-0.00679716	0
1655.05	0.00928675	-0.00674244	0
1665.05	0.00928675	-0.00667435	0
1675.05	0.00932492	-0.00663299	0
1685.05	0.00934401	-0.0065719	0
1695.05	0.00932492	-0.00651654	0
1705.05	0.00930584	-0.00645354	0
1715.05	0.00940128	-0.00639818	0
1725.05	0.00926766	-0.006353	0
1735.05	0.00938219	-0.00629573	0
1745.05	0.0093631	-0.006241	0
1755.05	0.00930584	-0.00621746	0
1765.05	0.00934401	-0.00613728	0
1775.05	0.00932492	-0.00609274	0
1785.05	0.00924857	-0.00604438	0
1795.05	0.00928675	-0.00598965	0
1805.05	0.00928675	-0.00594447	0
1815.05	0.00915313	-0.00589229	0
1825.05	0.0093631	-0.0058522	0
1835.05	0.0093631	-0.00580321	0
1845.05	0.00938219	-0.00574848	0
1855.05	0.00924857	-0.00571476	0
1865.05	0.00942037	-0.00565239	0
1875.05	0.00938219	-0.00560467	0
1885.05	0.00942037	-0.00556267	0
1895.05	0.00938219	-0.00550795	0
1905.05	0.00932492	-0.0054914	0
1915.05	0.00930584	-0.0054195	0
1925.05	0.00932492	-0.00537686	0
1935.05	0.00926766	-0.00534123	0
1945.05	0.00926766	-0.00528968	0
1955.05	0.00928675	-0.00525468	0
1965.05	0.00924857	-0.00519805	0
1975.05	0.00930584	-0.00516814	0
1985.05	0.00924857	-0.00511024	0
1995.05	0.00926766	-0.00508033	0
2005.05	0.00932492	-0.00504406	0
2015.05	0.00940128	-0.0049957	0
2025.05	0.00928675	-0.00495179	0
2035.05	0.00930584	-0.00491934	0
2045.05	0.00928675	-0.00488434	0
2055.05	0.00943945	-0.00483089	0
2065.05	0.00932492	-0.00479461	0
2075.05	0.00938219	-0.00477043	0
2085.05	0.00924857	-0.00472144	0
2095.05	0.00938219	-0.00468707	0
2105.05	0.00940128	-0.00465717	0
2115.05	0.00919131	-0.00462344	0
2125.05	0.00932492	-0.00458271	0
2135.05	0.00930584	-0.00453563	0
2145.05	0.00926766	-0.00450954	0
2155.05	0.00932492	-0.00449546	0
2165.05	0.00924857	-0.00446248	0
2175.05	0.00930584	-0.0044244	0
2185.05	0.0093631	-0.00438785	0
2195.05	0.00945854	-0.00435945	0
2205.05	0.0093631	-0.00432392	0
2215.05	0.00934401	-0.00429164	0
2225.05	0.00934401	-0.00425388	0
2235.05	0.00943945	-0.00423038	0
2245.05	0.00930584	-0.00419727	0
2255.05	0.0093631	-0.00415989	0
2265.05	0.00940128	-0.00412863	0
2275.05	0.00932492	-0.00410456	0
2285.05	0.00930584	-0.00407164	0
2295.05	0.00924857	-0.00403801	0
2305.05	0.00938219	-0.00400541	0
2315.05	0.00932492	-0.00398013	0
2325.05	0.00930584	-0.00394848	0
2334.17	0.00940128	-0.00392161	0
2334.17	0.00932492	-0.00392976	0