Folder: MASTER-THESIS/EXPERIMENTAL/Data/Cell-cycling/E-measurements/C-cell (part 2)

File: 2024-04-29_E-measurements_sample-Ionic-03_C-cell_Cu-Li_glassfiber-separator_25muL-ionic-electrolyte_outside-glovebox_sigma-0.02_added-OCV-0.1s_02_MB_C01.txt
time/s	Ewe/V	I/mA	error
60.053	2.72273	-0.0250252	0
60.1438	0.00947588	-10.3001	0
60.145	0.0094186	-10.1815	0
60.1462	0.00945679	-10.0656	0
60.1474	0.0094377	-9.95023	0
60.1486	0.00936133	-9.8373	0
60.1498	0.0094186	-9.72551	0
60.151	0.00938042	-9.6148	0
60.1522	0.00949497	-9.50549	0
60.1534	0.0094377	-9.3981	0
60.1546	0.00938042	-9.29197	0
60.1558	0.0094377	-9.18572	0
60.157	0.00939951	-9.08246	0
60.1582	0.0094186	-8.98009	0
60.1594	0.00939951	-8.87893	0
60.161	0.0094186	-8.74671	0
60.1624	0.00949497	-8.63174	0
60.164	0.00939951	-8.50384	0
60.1656	0.0094186	-8.37747	0
60.1672	0.00949497	-8.25384	0
60.1688	0.00930406	-8.13377	0
60.1704	0.00951406	-8.01479	0
60.172	0.00934224	-7.89956	0
60.1736	0.00938042	-7.78548	0
60.1752	0.0094186	-7.67528	0
60.1768	0.0094377	-7.56718	0
60.1784	0.00930406	-7.46119	0
60.18	0.00934224	-7.3571	0
60.1818	0.00938042	-7.24366	0
60.1838	0.0094377	-7.12079	0
60.1858	0.00939951	-7.00161	0
60.1878	0.0094186	-6.88499	0
60.1898	0.00934224	-6.77339	0
60.1918	0.00934224	-6.66325	0
60.1938	0.00939951	-6.55668	0
60.1958	0.00945679	-6.45317	0
60.1978	0.0094377	-6.35137	0
60.2002	0.00945679	-6.23443	0
60.2026	0.00939951	-6.11926	0
60.205	0.0094186	-6.009	0
60.2074	0.0094186	-5.90001	0
60.2098	0.00939951	-5.79503	0
60.2122	0.00939951	-5.69247	0
60.2148	0.00945679	-5.58482	0
60.2176	0.00939951	-5.47195	0
60.2204	0.00938042	-5.36226	0
60.2232	0.00936133	-5.25544	0
60.226	0.00945679	-5.15148	0
60.229	0.0094377	-5.04434	0
60.232	0.00936133	-4.93853	0
60.2352	0.0094186	-4.8312	0
60.2384	0.0094186	-4.72609	0
60.2416	0.00938042	-4.62436	0
60.2452	0.00939951	-4.51454	0
60.2488	0.00938042	-4.40893	0
60.2526	0.0094186	-4.30325	0
60.2566	0.0094377	-4.19617	0
60.2606	0.00939951	-4.0945	0
60.265	0.00947588	-3.9878	0
60.2698	0.00939951	-3.87964	0
60.2746	0.00945679	-3.77696	0
60.2798	0.00932315	-3.67332	0
60.2856	0.00949497	-3.56668	0
60.2916	0.00938042	-3.46381	0
60.2982	0.0094377	-3.3601	0
60.3054	0.00947588	-3.25627	0
60.3132	0.00934224	-3.15384	0
60.3218	0.00936133	-3.05039	0
60.3312	0.0094186	-2.94757	0
60.3412	0.00938042	-2.84641	0
60.3522	0.00945679	-2.74449	0
60.3644	0.00951406	-2.64149	0
60.3774	0.0094186	-2.53956	0
60.3916	0.00953315	-2.43796	0
60.4068	0.00938042	-2.3361	0
60.4232	0.00949497	-2.23475	0
60.4412	0.0094377	-2.13264	0
60.4606	0.00949497	-2.03065	0
60.4816	0.00949497	-1.93	0
60.5044	0.00945679	-1.82853	0
60.5294	0.00947588	-1.72794	0
60.557	0.00947588	-1.62685	0
60.588	0.00930406	-1.52582	0
60.6226	0.0094186	-1.4251	0
60.662	0.00945679	-1.32433	0
60.7078	0.0094377	-1.22285	0
60.7614	0.00936133	-1.12195	0
60.8246	0.00945679	-1.02136	0
60.903	0.00947588	-0.921029	0
61.0026	0.0094377	-0.819807	0
61.1334	0.00934224	-0.71954	0
61.3148	0.0094377	-0.619336	0
61.582	0.0094186	-0.519133	0
62.0094	0.00936133	-0.418924	0
62.7628	0.00951406	-0.318788	0
64.4436	0.00953315	-0.218734	0
65.0534	0.00949497	-0.198907	0
72.9966	0.00947588	-0.0988472	0
92.9966	0.00939951	-0.0463437	0
112.997	0.00939951	-0.031651	0
132.997	0.00930406	-0.0247418	0
152.997	0.00951406	-0.0207268	0
172.997	0.00934224	-0.0181597	0
192.997	0.00945679	-0.0162477	0
212.997	0.00932315	-0.0148958	0
232.997	0.00936133	-0.0136641	0
252.997	0.00951406	-0.0127819	0
272.997	0.00955224	-0.0119984	0
292.997	0.0094186	-0.0114173	0
312.997	0.0094377	-0.0108253	0
332.997	0.00938042	-0.0103543	0
352.997	0.00957133	-0.00987186	0
372.997	0.0094377	-0.00955106	0
392.997	0.0094377	-0.00919717	0
412.997	0.0094186	-0.00884773	0
432.997	0.0094377	-0.00852629	0
452.997	0.0094186	-0.00827933	0
472.997	0.00926588	-0.00803428	0
492.997	0.0094377	-0.00783442	0
512.997	0.00939951	-0.00755817	0
532.997	0.00951406	-0.00735449	0
552.997	0.0094186	-0.00720428	0
572.997	0.00947588	-0.00702606	0
592.997	0.0094377	-0.00687075	0
612.997	0.0094377	-0.00672499	0
632.997	0.00947588	-0.00657032	0
652.997	0.00939951	-0.00646276	0
672.997	0.00949497	-0.0062438	0
692.997	0.00947588	-0.00613432	0
712.997	0.0094186	-0.0060573	0
732.997	0.00953315	-0.00593319	0
752.997	0.0094186	-0.00583071	0
772.997	0.00938042	-0.00569704	0
792.997	0.00930406	-0.00562003	0
812.997	0.0094377	-0.00554619	0
832.997	0.00939951	-0.00546536	0
852.997	0.00939951	-0.00535206	0
872.997	0.00945679	-0.00524258	0
892.997	0.00951406	-0.00516302	0
912.997	0.0094186	-0.00509937	0
932.997	0.0094377	-0.00504718	0
952.997	0.0094186	-0.00494024	0
972.997	0.0094377	-0.0048715	0
992.997	0.00938042	-0.00475629	0
1013	0.00939951	-0.00475184	0
1033	0.00939951	-0.00467546	0
1053	0.00949497	-0.00462263	0
1073	0.0094377	-0.00452843	0
1093	0.00934224	-0.00449122	0
1113	0.0094186	-0.00443042	0
1133	0.00936133	-0.00437166	0
1153	0.0094186	-0.00430736	0
1173	0.0094186	-0.00426611	0
1193	0.0094377	-0.00420639	0
1213	0.00938042	-0.00416597	0
1233	0.00938042	-0.00410651	0
1253	0.0094186	-0.00406003	0
1273	0.00930406	-0.00403355	0
1293	0.0094186	-0.0040084	0
1309.34	0.00947588	-0.0039096	0
1309.34	0.00936133	-0.00392844	0

File: 2024-04-29_E-measurements_sample-Ionic-04_C-cell_Cu-Li_glassfiber-separator_25muL-ionic-electrolyte_outside-glovebox_sigma-0.02_added-OCV-0.1s_04_CP_C02.txt
time/s	Ewe/V	I/mA	error
1932.82	0.0014321	-0.194568	0
1932.82	-0.00319701	-0.195963	0
1932.82	-0.00623205	-0.195959	0
1932.82	-0.00854173	-0.195964	0
1932.82	-0.0113477	-0.195963	0
1932.82	-0.0141537	-0.195962	0
1932.82	-0.0165588	-0.195964	0
1932.83	-0.0191167	-0.195961	0
1932.83	-0.0216745	-0.195966	0
1932.83	-0.0239078	-0.195959	0
1932.83	-0.0262366	-0.195965	0
1932.83	-0.0284318	-0.195967	0
1932.83	-0.0305506	-0.195964	0
1932.83	-0.0329557	-0.195963	0
1932.83	-0.0351508	-0.195964	0
1932.84	-0.0375941	-0.195967	0
1932.84	-0.0401138	-0.195966	0
1932.84	-0.0425953	-0.195967	0
1932.84	-0.0447523	-0.195964	0
1932.84	-0.0471574	-0.195966	0
1932.84	-0.0496579	-0.195959	0
1932.85	-0.0520631	-0.195967	0
1932.85	-0.0542391	-0.195965	0
1932.85	-0.0565297	-0.195966	0
1932.85	-0.0589921	-0.195964	0
1932.85	-0.0612255	-0.195965	0
1932.85	-0.0636688	-0.195963	0
1932.86	-0.0660548	-0.195959	0
1932.86	-0.0682691	-0.195963	0
1932.86	-0.0705024	-0.195966	0
1932.86	-0.072793	-0.195965	0
1932.86	-0.0751218	-0.195966	0
1932.87	-0.0772978	-0.195964	0
1932.87	-0.0797984	-0.195969	0
1932.87	-0.0821463	-0.19597	0
1932.87	-0.0843605	-0.195959	0
1932.87	-0.0865747	-0.19596	0
1932.88	-0.0890944	-0.195966	0
1932.88	-0.0912514	-0.195966	0
1932.88	-0.0936565	-0.195969	0
1932.88	-0.0961571	-0.195966	0
1932.89	-0.0983522	-0.195966	0
1932.89	-0.100605	-0.195973	0
1932.89	-0.102762	-0.195969	0
1932.89	-0.10488	-0.195967	0
1932.9	-0.107076	-0.195966	0
1932.9	-0.109443	-0.195968	0
1932.9	-0.111695	-0.195962	0
1932.9	-0.113928	-0.195965	0
1932.91	-0.116219	-0.195963	0
1932.91	-0.118586	-0.195971	0
1932.91	-0.1208	-0.195959	0
1932.92	-0.122957	-0.195963	0
1932.92	-0.125057	-0.195965	0
1932.92	-0.127137	-0.195962	0
1932.93	-0.129409	-0.195964	0
1932.93	-0.13149	-0.195964	0
1932.93	-0.133666	-0.195964	0
1932.94	-0.135823	-0.195971	0
1932.94	-0.13796	-0.195964	0
1932.94	-0.140079	-0.19597	0
1932.95	-0.142294	-0.195968	0
1932.95	-0.144393	-0.195962	0
1932.96	-0.146741	-0.195964	0
1932.96	-0.148841	-0.195963	0
1932.96	-0.151036	-0.195963	0
1932.97	-0.153117	-0.195967	0
1932.97	-0.155159	-0.195965	0
1932.98	-0.15745	-0.195964	0
1932.98	-0.159568	-0.195964	0
1932.99	-0.161744	-0.19597	0
1932.99	-0.163901	-0.195963	0
1933	-0.166001	-0.195971	0
1933.01	-0.168082	-0.195959	0
1933.01	-0.17022	-0.195972	0
1933.02	-0.1723	-0.195965	0
1933.03	-0.174419	-0.195964	0
1933.03	-0.176462	-0.195968	0
1933.04	-0.178599	-0.195958	0
1933.05	-0.180795	-0.195971	0
1933.06	-0.182837	-0.195966	0
1933.08	-0.185032	-0.19597	0
1933.09	-0.187094	-0.195957	0
1933.12	-0.189155	-0.195963	0
1933.17	-0.187094	-0.195969	0
1933.19	-0.184975	-0.195966	0
1933.2	-0.182856	-0.195967	0
1933.21	-0.180814	-0.195968	0
1933.22	-0.178619	-0.195965	0
1933.23	-0.1765	-0.195966	0
1933.24	-0.174362	-0.195963	0
1933.25	-0.172052	-0.195967	0
1933.26	-0.169972	-0.195966	0
1933.27	-0.167834	-0.195967	0
1933.27	-0.165677	-0.195963	0
1933.28	-0.163596	-0.195966	0
1933.29	-0.161344	-0.195964	0
1933.3	-0.159301	-0.195963	0
1933.31	-0.157182	-0.195966	0
1933.32	-0.155102	-0.195966	0
1933.33	-0.152983	-0.195966	0
1933.34	-0.150807	-0.195965	0
1933.35	-0.148726	-0.195962	0
1933.36	-0.146607	-0.195961	0
1933.37	-0.144546	-0.195966	0
1933.38	-0.142484	-0.195963	0
1933.39	-0.140404	-0.19597	0
1933.4	-0.138266	-0.195968	0
1933.42	-0.136185	-0.195963	0
1933.43	-0.134124	-0.195957	0
1933.45	-0.132081	-0.195967	0
1933.47	-0.130039	-0.195968	0
1933.49	-0.128015	-0.195968	0
1933.52	-0.125992	-0.195968	0
1933.55	-0.123931	-0.195964	0
1933.59	-0.121888	-0.195966	0
1933.64	-0.119827	-0.195968	0
1933.7	-0.117803	-0.19597	0
1933.79	-0.115761	-0.195964	0
1933.93	-0.113623	-0.195963	0
1934.21	-0.111523	-0.195966	0
1937.82	-0.111504	-0.195974	0
1940.41	-0.113527	-0.195969	0
1943.05	-0.115551	-0.195968	0
1946.11	-0.117574	-0.195965	0
1949.28	-0.119617	-0.195968	0
1953.21	-0.121697	-0.195962	0
1957.52	-0.123759	-0.19597	0
1962.45	-0.125839	-0.195968	0
1968.19	-0.127901	-0.195968	0
1974.43	-0.129924	-0.195969	0
1982.22	-0.132005	-0.195969	0
1991.22	-0.134086	-0.195973	0
2002.74	-0.136166	-0.195973	0
2016.81	-0.138228	-0.195968	0
2032.69	-0.140251	-0.195967	0
2049.8	-0.142294	-0.19597	0
2068.6	-0.144336	-0.195971	0
2086	-0.146016	-0.195971	0
2106	-0.147466	-0.19597	0
2125.68	-0.148974	-0.195975	0
2145.68	-0.150292	-0.195968	0
2165.68	-0.151322	-0.195974	0
2185.68	-0.15241	-0.195968	0
2205.68	-0.153136	-0.195971	0
2225.68	-0.153842	-0.195972	0
2245.68	-0.154033	-0.195977	0
2265.68	-0.154586	-0.195965	0
2285.68	-0.154911	-0.195969	0
2305.68	-0.155121	-0.195971	0
2325.68	-0.155178	-0.195967	0
2345.68	-0.155274	-0.195968	0
2365.68	-0.155216	-0.19597	0
2385.68	-0.155121	-0.195963	0
2405.68	-0.155045	-0.195966	0
2425.68	-0.154777	-0.19597	0
2445.68	-0.154625	-0.195972	0
2465.68	-0.154338	-0.195968	0
2485.68	-0.15409	-0.195964	0
2505.68	-0.153727	-0.195967	0
2525.68	-0.153517	-0.195965	0
2545.68	-0.153269	-0.195974	0
2565.68	-0.152735	-0.195973	0
2585.68	-0.152448	-0.19597	0
2605.68	-0.151914	-0.195975	0
2625.68	-0.151513	-0.195969	0
2645.68	-0.15117	-0.195972	0
2665.68	-0.150673	-0.195971	0
2685.68	-0.150387	-0.195967	0
2705.68	-0.14991	-0.195973	0
2725.68	-0.149681	-0.195971	0
2745.68	-0.149242	-0.195971	0
2765.68	-0.148764	-0.195974	0
2785.68	-0.148344	-0.19597	0
2805.68	-0.14802	-0.195969	0
2825.68	-0.147505	-0.195963	0
2845.68	-0.147295	-0.195968	0
2865.68	-0.146817	-0.195971	0
2885.68	-0.146398	-0.19597	0
2905.68	-0.145958	-0.195975	0
2925.68	-0.145615	-0.195971	0
2945.68	-0.145233	-0.195977	0
2965.68	-0.144756	-0.195972	0
2985.68	-0.144508	-0.195966	0
3005.68	-0.144069	-0.19597	0
3025.68	-0.143744	-0.195973	0
3045.68	-0.143305	-0.195963	0
3065.68	-0.142923	-0.195973	0
3085.68	-0.142561	-0.195972	0
3105.68	-0.142198	-0.195974	0
3125.68	-0.141854	-0.195972	0
3145.68	-0.141473	-0.195968	0
3165.68	-0.141186	-0.19597	0
3185.68	-0.140957	-0.195968	0
3205.68	-0.140595	-0.195972	0
3225.68	-0.140213	-0.195964	0
3245.68	-0.139888	-0.195975	0
3265.68	-0.139526	-0.195966	0
3285.68	-0.139201	-0.19597	0
3305.68	-0.13901	-0.195965	0
3325.68	-0.138629	-0.195972	0
3345.68	-0.138342	-0.195971	0
3365.68	-0.138037	-0.195964	0
3385.68	-0.137674	-0.195966	0
3405.68	-0.137369	-0.195968	0
3425.68	-0.137197	-0.195965	0
3445.68	-0.136815	-0.195969	0
3465.68	-0.136548	-0.195973	0
3485.68	-0.136376	-0.195972	0
3505.68	-0.136052	-0.195973	0
3525.68	-0.135784	-0.195968	0
3545.68	-0.135574	-0.195971	0
3565.68	-0.135212	-0.19597	0
3585.68	-0.135097	-0.19597	0
3605.68	-0.134906	-0.19597	0
3625.68	-0.134582	-0.195972	0
3645.68	-0.134296	-0.19597	0
3665.68	-0.134162	-0.195972	0
3685.68	-0.133876	-0.195976	0
3705.68	-0.133608	-0.195973	0
3725.68	-0.133398	-0.195966	0
3732.82	-0.133112	-0.195974	0

File: 2024-05-01_E-measurements_sample-LiPF6-02_C-cell_Cu-Li_Cellgard2400_25muL-LiPF6-electrolyte_outside-glovebox_sigma-0.02_added-OCV-0.1s_02_MB_C01.txt
time/s	Ewe/V	I/mA	error
60.053	2.6651	-0.0250252	0
60.1732	0.00947588	-9.34611	0
60.1738	0.00928497	-9.27861	0
60.1744	0.00947588	-9.2111	0
60.175	0.00939951	-9.14614	0
60.1756	0.0094377	-9.07482	0
60.1762	0.00949497	-9.01113	0
60.1768	0.00947588	-8.94426	0
60.1774	0.00936133	-8.88503	0
60.178	0.00932315	-8.81243	0
60.1786	0.00939951	-8.75575	0
60.1792	0.0094186	-8.69016	0
60.18	0.0094377	-8.61437	0
60.1806	0.0094377	-8.54941	0
60.1812	0.0094377	-8.49146	0
60.1818	0.00936133	-8.44051	0
60.1824	0.00947588	-8.38702	0
60.183	0.00934224	-8.32843	0
60.1836	0.00947588	-8.27812	0
60.1842	0.00936133	-8.21889	0
60.1848	0.00947588	-8.16476	0
60.1856	0.0094377	-8.09789	0
60.1862	0.00953315	-8.04312	0
60.187	0.00953315	-7.98262	0
60.1876	0.00949497	-7.92976	0
60.1884	0.00932315	-7.86544	0
60.1892	0.00936133	-7.80303	0
60.19	0.00955224	-7.74635	0
60.1908	0.0094377	-7.68012	0
60.1916	0.0094186	-7.62535	0
60.1924	0.00947588	-7.56739	0
60.1932	0.00947588	-7.50817	0
60.194	0.00932315	-7.45212	0
60.1948	0.00934224	-7.40054	0
60.1956	0.0094186	-7.34895	0
60.1964	0.00947588	-7.29164	0
60.1974	0.00932315	-7.23305	0
60.1982	0.00957133	-7.1821	0
60.1992	0.00939951	-7.11969	0
60.2002	0.00949497	-7.05791	0
60.2014	0.00945679	-6.98977	0
60.2024	0.00932315	-6.93373	0
60.2034	0.0094377	-6.87769	0
60.2044	0.00947588	-6.82164	0
60.2056	0.0094377	-6.76496	0
60.2066	0.00947588	-6.71083	0
60.2076	0.00938042	-6.65797	0
60.2086	0.00938042	-6.60766	0
60.2098	0.00951406	-6.55162	0
60.211	0.00951406	-6.48857	0
60.2122	0.0094186	-6.43444	0
60.2134	0.0094377	-6.37903	0
60.2146	0.00934224	-6.32808	0
60.2158	0.00934224	-6.27523	0
60.217	0.00947588	-6.22237	0
60.2184	0.0094377	-6.16569	0
60.2198	0.00939951	-6.10837	0
60.2212	0.00934224	-6.04787	0
60.2224	0.0094186	-5.99756	0
60.224	0.00949497	-5.94343	0
60.2254	0.00955224	-5.88611	0
60.227	0.0094186	-5.82943	0
60.2286	0.00945679	-5.77403	0
60.23	0.00945679	-5.72053	0
60.2318	0.00939951	-5.66258	0
60.2334	0.0094186	-5.60781	0
60.235	0.00955224	-5.55113	0
60.2368	0.0094377	-5.49955	0
60.2384	0.00945679	-5.43586	0
60.2402	0.00951406	-5.38491	0
60.2422	0.00953315	-5.32951	0
60.2436	0.00947588	-5.27919	0
60.2456	0.0094377	-5.22888	0
60.2474	0.00939951	-5.17157	0
60.2492	0.00938042	-5.12126	0
60.2512	0.00936133	-5.06712	0
60.253	0.0094377	-5.01554	0
60.255	0.0094186	-4.95759	0
60.2572	0.00947588	-4.90409	0
60.2592	0.00947588	-4.8506	0
60.2616	0.00953315	-4.7971	0
60.2638	0.00938042	-4.74361	0
60.266	0.0094377	-4.69329	0
60.268	0.0094186	-4.64298	0
60.2702	0.00945679	-4.58821	0
60.2728	0.0094377	-4.53472	0
60.2752	0.0094377	-4.48186	0
60.2776	0.00936133	-4.42964	0
60.2804	0.00939951	-4.36341	0
60.2838	0.00932315	-4.30545	0
60.2864	0.00934224	-4.25514	0
60.289	0.0094377	-4.20419	0
60.292	0.00932315	-4.15261	0
60.2944	0.00945679	-4.10166	0
60.2976	0.00938042	-4.04689	0
60.3006	0.00939951	-3.99212	0
60.3038	0.0094186	-3.93481	0
60.3074	0.00934224	-3.87813	0
60.311	0.0094377	-3.82399	0
60.3144	0.00939951	-3.76859	0
60.318	0.00947588	-3.71573	0
60.3216	0.0094377	-3.66415	0
60.3254	0.00936133	-3.61256	0
60.329	0.00936133	-3.55524	0
60.333	0.0094186	-3.50493	0
60.337	0.0094186	-3.45462	0
60.3416	0.00947588	-3.40304	0
60.3452	0.0094377	-3.35209	0
60.35	0.00934224	-3.29859	0
60.3548	0.00949497	-3.24191	0
60.3592	0.00949497	-3.1916	0
60.3648	0.00939951	-3.13683	0
60.3702	0.0094186	-3.0827	0
60.4034	0.0094377	-2.80554	0
60.41	0.00945679	-2.755	0
60.4168	0.00939951	-2.7047	0
60.424	0.00945679	-2.65371	0
60.4316	0.00928497	-2.60291	0
60.4396	0.00936133	-2.55268	0
60.4478	0.00945679	-2.5022	0
60.4566	0.00953315	-2.45095	0
60.4658	0.00953315	-2.4004	0
60.4754	0.00939951	-2.3496	0
60.4856	0.0094377	-2.29924	0
60.4964	0.00947588	-2.24819	0
60.5078	0.00939951	-2.19764	0
60.5198	0.00939951	-2.14626	0
60.5328	0.00951406	-2.09616	0
60.5462	0.0094377	-2.04472	0
60.5606	0.0094186	-1.99417	0
60.576	0.00945679	-1.94407	0
60.5922	0.00939951	-1.89391	0
60.6094	0.0094377	-1.84387	0
60.6278	0.0094186	-1.79332	0
60.648	0.00955224	-1.74284	0
60.6692	0.0094186	-1.69255	0
60.6924	0.0094377	-1.64225	0
60.7174	0.00938042	-1.59101	0
60.745	0.00945679	-1.54001	0
60.7746	0.00945679	-1.48934	0
60.807	0.00945679	-1.4393	0
60.8414	0.00939951	-1.3892	0
60.8806	0.00945679	-1.3391	0
60.9232	0.00938042	-1.28899	0
60.97	0.00938042	-1.23857	0
61.0232	0.0094377	-1.18841	0
61.0822	0.00947588	-1.13805	0
61.1486	0.0094377	-1.08795	0
61.2252	0.00938042	-1.03759	0
61.3114	0.00947588	-0.987492	0
61.411	0.00945679	-0.93739	0
61.5256	0.00947588	-0.887225	0
61.661	0.00939951	-0.83706	0
61.8228	0.0094377	-0.787021	0
62.0176	0.00945679	-0.736792	0
62.2554	0.00947588	-0.686754	0
62.5504	0.00945679	-0.636589	0
62.923	0.00945679	-0.586105	0
63.4218	0.0094377	-0.535876	0
64.071	0.00938042	-0.485774	0
65.0056	0.00949497	-0.43574	0
65.0528	0.00938042	-0.434504	0
65.0534	0.00938042	-0.43339	0
66.351	0.00939951	-0.383262	0
68.2526	0.00949497	-0.333171	0
71.1522	0.00939951	-0.283164	0
75.884	0.00947588	-0.233092	0
83.6026	0.00949497	-0.1829	0
93.6026	0.0094377	-0.142392	0
103.603	0.0094186	-0.116421	0
113.603	0.0094186	-0.0990319	0
123.603	0.00945679	-0.0856927	0
133.603	0.00938042	-0.0754288	0
143.603	0.0094377	-0.0671579	0
153.603	0.0094377	-0.0605552	0
163.603	0.00949497	-0.0542835	0
173.603	0.00947588	-0.0498902	0
183.603	0.0094377	-0.0458598	0
193.603	0.00951406	-0.0421979	0
203.603	0.00947588	-0.0390975	0
213.603	0.00939951	-0.0362141	0
223.603	0.00939951	-0.0337808	0
233.603	0.0094186	-0.0314671	0
243.603	0.0094377	-0.0295398	0
253.603	0.00945679	-0.0277423	0
263.603	0.0094377	-0.026081	0
273.603	0.00945679	-0.0246272	0
283.603	0.0094377	-0.0232409	0
293.603	0.00934224	-0.0219953	0
303.603	0.0094377	-0.0208146	0
313.603	0.00945679	-0.0198026	0
323.603	0.00939951	-0.0189834	0
333.603	0.00939951	-0.0188803	0
343.603	0.00939951	-0.0173145	0
353.603	0.00951406	-0.0177772	0
363.603	0.00939951	-0.0159409	0
373.603	0.00936133	-0.015342	0
383.603	0.0094377	-0.0146533	0
393.603	0.00938042	-0.0140721	0
403.603	0.00945679	-0.0135604	0
413.603	0.00932315	-0.0130181	0
423.603	0.00939951	-0.0125884	0
433.603	0.0094377	-0.0121308	0
443.603	0.00936133	-0.0117483	0
453.603	0.0094377	-0.0113995	0
463.603	0.00947588	-0.0109934	0
473.603	0.00945679	-0.0107324	0
483.603	0.0094186	-0.0103747	0
493.603	0.0094186	-0.00988777	0
503.603	0.00959042	-0.00979548	0
513.603	0.0094186	-0.0094123	0
523.603	0.00947588	-0.0092029	0
533.603	0.00926588	-0.00905077	0
543.603	0.00949497	-0.0087217	0
553.603	0.00938042	-0.00835762	0
563.603	0.00949497	-0.00819913	0
573.603	0.00945679	-0.00799672	0
583.603	0.00949497	-0.00784587	0
593.603	0.0094186	-0.00767274	0
603.603	0.0094186	-0.00753972	0
613.603	0.00947588	-0.0073093	0
623.603	0.0094377	-0.00711008	0
633.603	0.0094377	-0.0069745	0
643.603	0.0094186	-0.00684402	0
653.603	0.00947588	-0.00668235	0
663.603	0.0094377	-0.00652959	0
673.603	0.0094377	-0.00643093	0
683.603	0.00939951	-0.00624189	0
693.603	0.00945679	-0.00613814	0
703.603	0.00947588	-0.0060363	0
713.603	0.0094186	-0.00577597	0
723.603	0.00939951	-0.00585553	0
733.603	0.00947588	-0.0056754	0
743.603	0.0094186	-0.0055411	0
753.603	0.00945679	-0.00542717	0
763.603	0.0094377	-0.0053266	0
773.603	0.00939951	-0.00522985	0
783.603	0.00936133	-0.00518848	0
793.603	0.00939951	-0.0051802	0
803.603	0.00945679	-0.00497207	0
813.603	0.00947588	-0.00492115	0
823.603	0.00953315	-0.00487277	0
833.603	0.0094186	-0.00471429	0
843.603	0.0094186	-0.00471556	0
853.603	0.0094377	-0.00457744	0
863.603	0.0094186	-0.00444186	0
873.603	0.00945679	-0.00449561	0
883.603	0.00939951	-0.00440827	0
893.603	0.00945679	-0.00433773	0
903.603	0.00939951	-0.00427903	0
913.603	0.0094377	-0.0042812	0
923.603	0.00934224	-0.00419162	0
933.603	0.0094186	-0.00410141	0
943.603	0.00928497	-0.00403476	0
953.603	0.0094186	-0.00398103	0
958.724	0.00939951	-0.00392412	0
958.724	0.0094377	-0.00393736	0