Folder: MASTER-THESIS/EXPERIMENTAL/Data/Cell-cycling/E-measurements/C-cell (part 3)

File: 2024-05-01_E-measurements_sample-LiPF6-02_C-cell_Cu-Li_Cellgard2400_25muL-LiPF6-electrolyte_outside-glovebox_sigma-0.02_added-OCV-0.1s_04_CP_C01.txt
time/s	Ewe/V	I/mA	error
958.877	0.00570265	-0.194688	0
958.877	-0.0114861	-0.195953	0
958.878	-0.0222725	-0.195958	0
958.878	-0.0305008	-0.195958	0
958.879	-0.0372017	-0.195958	0
958.879	-0.0426999	-0.195965	0
958.879	-0.0471863	-0.195967	0
958.88	-0.0511191	-0.195961	0
958.88	-0.0544982	-0.195963	0
958.881	-0.0573237	-0.195963	0
958.881	-0.0598246	-0.195965	0
958.881	-0.0620201	-0.195967	0
958.882	-0.0656473	-0.195961	0
958.883	-0.068511	-0.195959	0
958.884	-0.0709928	-0.195965	0
958.885	-0.0737992	-0.195963	0
958.886	-0.0761856	-0.195971	0
958.888	-0.0784956	-0.195963	0
958.889	-0.0805956	-0.195961	0
958.891	-0.082982	-0.195963	0
958.893	-0.0851011	-0.19597	0
958.895	-0.0872775	-0.195961	0
958.897	-0.0895111	-0.195963	0
958.9	-0.0916302	-0.195965	0
958.902	-0.0938066	-0.195969	0
958.904	-0.0959448	-0.195966	0
958.907	-0.0982548	-0.195961	0
958.91	-0.100336	-0.195964	0
958.912	-0.102359	-0.195973	0
958.915	-0.104402	-0.19597	0
958.919	-0.107018	-0.195965	0
958.922	-0.109079	-0.195967	0
958.925	-0.111332	-0.195967	0
958.928	-0.113604	-0.195968	0
958.931	-0.115799	-0.195967	0
958.935	-0.118167	-0.195962	0
958.938	-0.120248	-0.195967	0
958.942	-0.122462	-0.195964	0
958.945	-0.124677	-0.195972	0
958.949	-0.12691	-0.195963	0
958.953	-0.128991	-0.195965	0
958.956	-0.131034	-0.195964	0
958.96	-0.133096	-0.195966	0
958.964	-0.135234	-0.195962	0
958.968	-0.137582	-0.195966	0
958.973	-0.139663	-0.19597	0
958.977	-0.141763	-0.195967	0
958.981	-0.143921	-0.195968	0
958.986	-0.146135	-0.195966	0
958.991	-0.148292	-0.195967	0
958.995	-0.150507	-0.195963	0
959	-0.152645	-0.195967	0
959.005	-0.154898	-0.195967	0
959.01	-0.157074	-0.195973	0
959.016	-0.159365	-0.195965	0
959.022	-0.161675	-0.195965	0
959.027	-0.163833	-0.195963	0
959.034	-0.166181	-0.195966	0
959.04	-0.1683	-0.195966	0
959.046	-0.170419	-0.195963	0
959.052	-0.172443	-0.195966	0
959.058	-0.174523	-0.195963	0
959.065	-0.176738	-0.195961	0
959.072	-0.178914	-0.195966	0
959.079	-0.181053	-0.195961	0
959.087	-0.183229	-0.195966	0
959.095	-0.185329	-0.195973	0
959.103	-0.187563	-0.195965	0
959.112	-0.189777	-0.195969	0
959.12	-0.191954	-0.195967	0
959.13	-0.193996	-0.195965	0
959.14	-0.196135	-0.19597	0
959.149	-0.198215	-0.195964	0
959.16	-0.200392	-0.195964	0
959.171	-0.202568	-0.195965	0
959.183	-0.204687	-0.195967	0
959.195	-0.206768	-0.19597	0
959.208	-0.208849	-0.195969	0
959.222	-0.210968	-0.195974	0
959.237	-0.213049	-0.195965	0
959.252	-0.215111	-0.195966	0
959.269	-0.217268	-0.195975	0
959.289	-0.219407	-0.195974	0
959.31	-0.221468	-0.195964	0
959.334	-0.22353	-0.195965	0
959.364	-0.225649	-0.19597	0
959.408	-0.227711	-0.195964	0
959.532	-0.227673	-0.195972	0
959.603	-0.225573	-0.195968	0
959.669	-0.223549	-0.195967	0
959.743	-0.221507	-0.195961	0
959.827	-0.219445	-0.195968	0
959.933	-0.217307	-0.195962	0
960.057	-0.215264	-0.19597	0
960.204	-0.21324	-0.195963	0
960.367	-0.211197	-0.195968	0
960.558	-0.209174	-0.195967	0
960.783	-0.20715	-0.195963	0
961.032	-0.205107	-0.19597	0
961.317	-0.203084	-0.195965	0
961.625	-0.201041	-0.195967	0
961.999	-0.198979	-0.19597	0
962.423	-0.196917	-0.195966	0
962.86	-0.194855	-0.195971	0
963.366	-0.192832	-0.195965	0
963.933	-0.190751	-0.19597	0
964.58	-0.188651	-0.195967	0
965.288	-0.18657	-0.195963	0
966.123	-0.184508	-0.195965	0
967.023	-0.182465	-0.19597	0
968.093	-0.180404	-0.195975	0
969.308	-0.178342	-0.195968	0
970.691	-0.176299	-0.195967	0
972.309	-0.174275	-0.195975	0
974.217	-0.172137	-0.195963	0
976.369	-0.170094	-0.195969	0
978.878	-0.168071	-0.195968	0
981.651	-0.166047	-0.195969	0
984.933	-0.164004	-0.195969	0
988.764	-0.161962	-0.195974	0
993.318	-0.159938	-0.195966	0
998.686	-0.157914	-0.195967	0
1005.51	-0.155891	-0.195969	0
1014.7	-0.153829	-0.19597	0
1027.45	-0.151805	-0.19597	0
1046.68	-0.150125	-0.19597	0
1066.5	-0.148846	-0.195971	0
1086.5	-0.14772	-0.195969	0
1106.5	-0.146746	-0.195969	0
1126.5	-0.145982	-0.195968	0
1146.5	-0.145257	-0.195967	0
1166.5	-0.144531	-0.195968	0
1186.5	-0.14394	-0.195967	0
1206.5	-0.143252	-0.195967	0
1226.5	-0.14268	-0.195972	0
1246.5	-0.142107	-0.19597	0
1266.5	-0.141477	-0.195968	0
1286.5	-0.141	-0.195971	0
1306.5	-0.140331	-0.195976	0
1326.5	-0.139587	-0.195966	0
1346.5	-0.139014	-0.195968	0
1366.5	-0.138556	-0.195971	0
1386.5	-0.138002	-0.19597	0
1406.5	-0.137258	-0.195972	0
1426.5	-0.136761	-0.195967	0
1446.5	-0.136017	-0.19597	0
1466.5	-0.135463	-0.195964	0
1486.5	-0.134642	-0.195971	0
1506.5	-0.134337	-0.195964	0
1526.5	-0.133421	-0.195967	0
1546.5	-0.132924	-0.195969	0
1566.5	-0.132256	-0.195971	0
1586.5	-0.131855	-0.19597	0
1606.5	-0.13111	-0.195968	0
1626.5	-0.130385	-0.195966	0
1646.5	-0.129793	-0.195972	0
1666.5	-0.129068	-0.195971	0
1686.5	-0.128514	-0.195974	0
1706.5	-0.127808	-0.195969	0
1726.5	-0.127235	-0.195965	0
1746.5	-0.126605	-0.195963	0
1766.5	-0.126051	-0.195974	0
1786.5	-0.125498	-0.195972	0
1806.5	-0.12483	-0.195972	0
1826.5	-0.124295	-0.19597	0
1846.5	-0.123684	-0.19597	0
1866.5	-0.123054	-0.195961	0
1886.5	-0.12252	-0.195973	0
1906.5	-0.12187	-0.195972	0
1926.5	-0.12145	-0.19597	0
1946.5	-0.120687	-0.195972	0
1966.5	-0.12019	-0.19597	0
1986.5	-0.119732	-0.195976	0
2006.5	-0.119121	-0.19597	0
2026.5	-0.118568	-0.195962	0
2046.5	-0.117919	-0.195969	0
2066.5	-0.117499	-0.19597	0
2086.5	-0.116983	-0.195965	0
2106.5	-0.116449	-0.19597	0
2126.5	-0.115838	-0.195966	0
2146.5	-0.115265	-0.195974	0
2166.5	-0.114749	-0.195972	0
2186.5	-0.114291	-0.195971	0
2206.5	-0.113871	-0.195968	0
2226.5	-0.113337	-0.195968	0
2246.5	-0.112726	-0.195967	0
2266.5	-0.112344	-0.195967	0
2286.5	-0.111733	-0.195968	0
2306.5	-0.11137	-0.195972	0
2326.5	-0.110931	-0.195966	0
2346.5	-0.110339	-0.195974	0
2366.5	-0.109919	-0.195976	0
2386.5	-0.109576	-0.19597	0
2406.5	-0.108889	-0.195972	0
2426.5	-0.108488	-0.195965	0
2446.5	-0.10801	-0.195965	0
2466.5	-0.107667	-0.195963	0
2486.5	-0.107209	-0.19597	0
2506.5	-0.106789	-0.195968	0
2526.5	-0.106369	-0.195975	0
2546.5	-0.105834	-0.195967	0
2566.5	-0.10549	-0.195969	0
2586.5	-0.105166	-0.195963	0
2606.5	-0.10465	-0.195964	0
2626.5	-0.104269	-0.195974	0
2646.5	-0.10381	-0.195972	0
2666.5	-0.103505	-0.195969	0
2686.5	-0.103142	-0.195964	0
2706.5	-0.102627	-0.195968	0
2726.5	-0.102168	-0.195968	0
2746.5	-0.101997	-0.19597	0
2758.88	-0.101634	-0.195963	0