Folder: MASTER-THESIS/EXPERIMENTAL/Data/Battery-cycling/JP-measurements/C-cell (part 3)

File: 2024-04-23_JP-measurements_sample-A8-02_C-cell_Cu-Li-Cellgard2400-separator_25muL-LiFSI-in-DME_outside-glovebox_sigma-0.02_added-OCV-0.1s_02_MB_C11.txt
time/s	Ewe/V	I/mA	error
60.053	2.92592	-0.025006	0
60.1736	0.00904193	-16.0142	0
60.1744	0.0090992	-15.8603	0
60.1752	0.00898467	-15.7267	0
60.176	0.00906102	-15.5873	0
60.1768	0.00911828	-15.4461	0
60.1776	0.00908011	-15.3119	0
60.1784	0.00906102	-15.1777	0
60.1792	0.00906102	-15.0473	0
60.18	0.00902284	-14.9105	0
60.1808	0.00906102	-14.7852	0
60.1816	0.00894649	-14.663	0
60.1824	0.00898467	-14.5447	0
60.1832	0.00888923	-14.4092	0
60.184	0.00908011	-14.282	0
60.185	0.00900376	-14.1363	0
60.1858	0.00894649	-14.0218	0
60.1866	0.00898467	-13.9041	0
60.1874	0.00898467	-13.7896	0
60.1882	0.00900376	-13.6782	0
60.189	0.00906102	-13.5618	0
60.1898	0.00900376	-13.4499	0
60.1908	0.00896558	-13.3182	0
60.1916	0.00894649	-13.2075	0
60.1924	0.00904193	-13.1038	0
60.1932	0.00894649	-12.9912	0
60.1942	0.00902284	-12.8646	0
60.1954	0.00902284	-12.7132	0
60.1964	0.0090992	-12.5911	0
60.1974	0.00908011	-12.4702	0
60.1984	0.0090992	-12.3423	0
60.1996	0.00902284	-12.1935	0
60.2008	0.00900376	-12.0548	0
60.202	0.00898467	-11.9263	0
60.203	0.00902284	-11.8137	0
60.204	0.00908011	-11.6973	0
60.2052	0.00887014	-11.5643	0
60.2064	0.00892741	-11.4377	0
60.2076	0.00908011	-11.3086	0
60.2088	0.00917555	-11.1877	0
60.21	0.00902284	-11.0668	0
60.2112	0.00902284	-10.9422	0
60.2124	0.00911828	-10.8257	0
60.2136	0.00915646	-10.7049	0
60.2148	0.00900376	-10.5891	0
60.2162	0.00898467	-10.465	0
60.2174	0.00898467	-10.3499	0
60.2188	0.00892741	-10.2271	0
60.2202	0.00904193	-10.0999	0
60.2216	0.00898467	-9.97774	0
60.2228	0.00906102	-9.87278	0
60.2242	0.00902284	-9.76081	0
60.2256	0.00894649	-9.64567	0
60.227	0.00906102	-9.52735	0
60.2286	0.00898467	-9.4033	0
60.2302	0.00896558	-9.27861	0
60.2318	0.00896558	-9.15456	0
60.2334	0.00915646	-9.04769	0
60.235	0.00902284	-8.91982	0
60.2366	0.00892741	-8.80404	0
60.2382	0.00904193	-8.69589	0
60.2398	0.00900376	-8.58329	0
60.2416	0.00900376	-8.46561	0
60.2434	0.00908011	-8.34665	0
60.2452	0.00888923	-8.23405	0
60.247	0.00900376	-8.12526	0
60.2488	0.00904193	-8.0133	0
60.2506	0.00894649	-7.9007	0
60.2528	0.00908011	-7.77792	0
60.2548	0.00904193	-7.66214	0
60.2568	0.00908011	-7.55209	0
60.2588	0.00902284	-7.4414	0
60.2612	0.00900376	-7.3218	0
60.2632	0.00904193	-7.2162	0
60.2658	0.00898467	-7.0877	0
60.2682	0.00902284	-6.97255	0
60.2706	0.00904193	-6.85296	0
60.2732	0.00906102	-6.73463	0
60.2758	0.00900376	-6.61885	0
60.2784	0.00898467	-6.51071	0
60.281	0.00908011	-6.39938	0
60.284	0.0090992	-6.2836	0
60.2866	0.00896558	-6.17355	0
60.2896	0.00904193	-6.06985	0
60.2924	0.00902284	-5.96298	0
60.2954	0.0090992	-5.8561	0
60.2984	0.00906102	-5.7505	0
60.3018	0.00906102	-5.63981	0
60.305	0.00900376	-5.53421	0
60.3084	0.00900376	-5.42288	0
60.3122	0.00915646	-5.31347	0
60.316	0.00894649	-5.20468	0
60.3196	0.00898467	-5.09972	0
60.324	0.00896558	-4.98585	0
60.3284	0.00908011	-4.87579	0
60.3332	0.00908011	-4.75429	0
60.3378	0.00896558	-4.65123	0
60.3422	0.00900376	-4.53927	0
60.3474	0.0090992	-4.43494	0
60.3526	0.0090992	-4.32743	0
60.3586	0.0090992	-4.21737	0
60.3642	0.00898467	-4.11368	0
60.37	0.00896558	-4.00871	0
60.4074	0.00900376	-3.49588	0
60.4158	0.00900376	-3.39239	0
60.4248	0.00898467	-3.28865	0
60.4342	0.00921372	-3.18687	0
60.4442	0.00898467	-3.08472	0
60.4548	0.00904193	-2.9839	0
60.4662	0.00900376	-2.88257	0
60.4786	0.00906102	-2.78118	0
60.492	0.00904193	-2.67883	0
60.5062	0.00908011	-2.57789	0
60.5218	0.00908011	-2.47592	0
60.5386	0.00902284	-2.37485	0
60.5568	0.00913737	-2.27422	0
60.577	0.00904193	-2.17238	0
60.5988	0.00896558	-2.07163	0
60.6232	0.00902284	-1.97075	0
60.6502	0.00898467	-1.87005	0
60.6804	0.00900376	-1.76892	0
60.7142	0.00900376	-1.66803	0
60.753	0.00908011	-1.56677	0
60.7978	0.00906102	-1.46595	0
60.8504	0.00908011	-1.36539	0
60.912	0.00900376	-1.26469	0
60.9872	0.00904193	-1.16362	0
61.0806	0.00890832	-1.06153	0
61.1982	0.00898467	-0.961027	0
61.3496	0.00904193	-0.860589	0
61.5516	0.00900376	-0.760151	0
61.833	0.00906102	-0.659714	0
62.254	0.00898467	-0.55934	0
62.9256	0.00896558	-0.458838	0
64.2368	0.00908011	-0.358654	0
65.0534	0.00908011	-0.320594	0
69.7416	0.00904193	-0.220542	0
85.8482	0.00904193	-0.131759	0
105.848	0.00904193	-0.0958869	0
125.848	0.00906102	-0.076462	0
145.848	0.00902284	-0.0628461	0
165.848	0.00900376	-0.0538368	0
185.848	0.00913737	-0.0469779	0
205.848	0.00908011	-0.0422324	0
225.848	0.00900376	-0.0380703	0
245.848	0.00900376	-0.0347364	0
265.848	0.00915646	-0.0318644	0
285.848	0.00900376	-0.0294535	0
305.848	0.00894649	-0.0274574	0
325.848	0.00902284	-0.0255663	0
345.848	0.0090992	-0.0240657	0
365.848	0.00902284	-0.0225333	0
385.848	0.00902284	-0.0213412	0
405.848	0.00894649	-0.020111	0
425.848	0.00917555	-0.0189933	0
445.848	0.00904193	-0.0180945	0
465.848	0.0090992	-0.0171588	0
485.848	0.00898467	-0.0163465	0
505.848	0.00906102	-0.0157263	0
525.848	0.00908011	-0.014926	0
545.848	0.00898467	-0.014246	0
565.848	0.00908011	-0.0136214	0
585.848	0.00908011	-0.0131029	0
605.848	0.00904193	-0.0125209	0
625.848	0.00906102	-0.0120743	0
645.848	0.00898467	-0.0117308	0
665.848	0.00904193	-0.0112442	0
685.848	0.0090992	-0.0107061	0
705.848	0.00894649	-0.0104185	0
725.848	0.00898467	-0.00998154	0
745.848	0.0090992	-0.00957315	0
765.848	0.00902284	-0.00933525	0
785.848	0.00908011	-0.00905727	0
805.848	0.00900376	-0.00876911	0
825.848	0.00908011	-0.00843197	0
845.848	0.00908011	-0.00810882	0
865.848	0.00898467	-0.00789763	0
885.848	0.00904193	-0.007661	0
905.848	0.00906102	-0.00741483	0
925.848	0.00906102	-0.00716165	0
945.848	0.00898467	-0.00705733	0
965.848	0.00906102	-0.00674627	0
985.848	0.00913737	-0.00659424	0
1005.85	0.00902284	-0.0063716	0
1025.85	0.00894649	-0.00624438	0
1045.85	0.0090992	-0.00612288	0
1065.85	0.00896558	-0.00600711	0
1085.85	0.00908011	-0.00574376	0
1105.85	0.00906102	-0.00559618	0
1125.85	0.00902284	-0.00540917	0
1145.85	0.00906102	-0.00540026	0
1165.85	0.00902284	-0.0052794	0
1185.85	0.00902284	-0.00506948	0
1205.85	0.00896558	-0.0050046	0
1225.85	0.00904193	-0.00480486	0
1245.85	0.00902284	-0.00476924	0
1265.85	0.00902284	-0.00469163	0
1285.85	0.0090992	-0.00449762	0
1305.85	0.00902284	-0.00452203	0
1325.85	0.00896558	-0.00440801	0
1345.85	0.00911828	-0.004312	0
1365.85	0.00908011	-0.00422229	0
1385.85	0.00904193	-0.00414581	0
1405.85	0.00898467	-0.00405253	0
1425.85	0.00904193	-0.00400291	0
1430.85	0.00911828	-0.00392668	0

File: 2024-04-23_JP-measurements_sample-A9-03_C-cell_Cu-Li-Cellgard2400-separator_25muL-LiFSI-in-DME_outside-glovebox_sigma-0.02_added-OCV-0.1_04_CP_C10.txt
time/s	Ewe/V	I/mA	error
245.752	-0.071401	-1.94429	0
245.753	-0.157743	-1.95949	0
245.753	-0.178296	-1.95952	0
245.754	-0.194556	-1.95952	0
245.755	-0.208677	-1.95951	0
245.755	-0.221139	-1.95954	0
245.756	-0.232627	-1.95952	0
245.756	-0.243009	-1.95957	0
245.757	-0.252684	-1.95959	0
245.758	-0.261539	-1.95953	0
245.758	-0.269897	-1.95956	0
245.759	-0.277722	-1.95952	0
245.759	-0.285088	-1.95956	0
245.76	-0.291767	-1.95952	0
245.761	-0.298217	-1.95956	0
245.761	-0.304343	-1.95955	0
245.762	-0.310125	-1.95957	0
245.762	-0.31545	-1.9595	0
245.763	-0.320488	-1.95956	0
245.764	-0.325354	-1.95958	0
245.764	-0.329953	-1.95956	0
245.765	-0.334171	-1.95957	0
245.765	-0.33835	-1.9596	0
245.766	-0.34209	-1.95961	0
245.767	-0.345773	-1.95959	0
245.767	-0.349189	-1.95961	0
245.768	-0.352491	-1.95959	0
245.769	-0.358521	-1.95957	0
245.77	-0.364017	-1.95963	0
245.771	-0.368674	-1.95955	0
245.773	-0.37291	-1.95963	0
245.774	-0.376612	-1.95959	0
245.775	-0.380544	-1.95959	0
245.777	-0.384227	-1.95956	0
245.779	-0.387604	-1.95962	0
245.782	-0.390753	-1.95962	0
245.794	-0.391898	-1.95957	0
245.801	-0.388749	-1.95956	0
245.807	-0.385448	-1.95963	0
245.813	-0.382261	-1.95964	0
245.819	-0.378998	-1.95957	0
245.825	-0.375754	-1.95963	0
245.832	-0.372643	-1.95958	0
245.839	-0.369532	-1.95962	0
245.846	-0.366384	-1.95961	0
245.855	-0.363178	-1.95963	0
245.864	-0.359971	-1.95963	0
245.874	-0.356861	-1.95967	0
245.885	-0.353693	-1.95959	0
245.897	-0.350544	-1.95957	0
245.912	-0.347281	-1.95966	0
245.929	-0.344037	-1.95953	0
245.949	-0.340926	-1.95963	0
245.974	-0.337892	-1.95961	0
246.005	-0.334819	-1.95957	0
246.052	-0.331785	-1.95956	0
246.145	-0.328675	-1.95961	0
246.644	-0.329686	-1.95959	0
246.934	-0.332758	-1.95963	0
247.204	-0.335812	-1.95959	0
247.477	-0.338922	-1.95963	0
247.737	-0.342014	-1.95961	0
248.011	-0.345201	-1.9596	0
248.281	-0.348331	-1.9596	0
248.549	-0.351441	-1.95959	0
248.824	-0.354552	-1.95957	0
249.097	-0.357624	-1.95963	0
249.372	-0.360658	-1.95961	0
249.647	-0.363731	-1.95959	0
249.928	-0.366784	-1.95961	0
250.22	-0.369933	-1.95963	0
250.503	-0.372986	-1.95957	0
250.804	-0.376078	-1.95961	0
251.107	-0.379189	-1.95958	0
251.42	-0.382299	-1.95964	0
251.739	-0.385372	-1.9596	0
252.056	-0.388406	-1.95958	0
252.391	-0.391536	-1.95963	0
252.74	-0.394646	-1.95958	0
253.092	-0.3977	-1.9596	0
253.452	-0.400753	-1.95962	0
253.837	-0.403845	-1.95963	0
254.232	-0.406879	-1.95959	0
254.638	-0.409932	-1.95962	0
255.076	-0.412986	-1.95957	0
255.539	-0.416115	-1.95958	0
256.033	-0.419226	-1.95957	0
256.557	-0.422298	-1.95963	0
257.13	-0.425409	-1.95956	0
257.73	-0.428462	-1.95964	0
258.411	-0.431535	-1.95958	0
259.171	-0.434569	-1.95954	0
260.046	-0.437641	-1.95959	0
261.12	-0.440676	-1.95957	0
262.579	-0.443729	-1.95957	0
268.95	-0.44476	-1.95965	0
271.088	-0.441706	-1.95962	0
272.662	-0.438634	-1.95961	0
273.988	-0.435561	-1.95956	0
275.19	-0.432508	-1.95959	0
276.317	-0.429474	-1.95961	0
277.377	-0.426401	-1.95964	0
278.41	-0.42331	-1.95957	0
279.386	-0.420218	-1.95959	0
280.389	-0.417127	-1.95958	0
281.351	-0.414016	-1.95964	0
282.31	-0.410886	-1.95962	0
283.219	-0.407833	-1.9596	0
284.146	-0.404761	-1.95956	0
285.074	-0.401688	-1.95957	0
285.974	-0.398635	-1.9596	0
286.89	-0.395562	-1.95963	0
287.799	-0.392471	-1.95962	0
288.712	-0.389379	-1.95961	0
289.606	-0.386345	-1.95959	0
290.512	-0.383215	-1.95957	0
291.415	-0.380181	-1.95955	0
292.302	-0.377128	-1.95966	0
293.167	-0.374074	-1.95964	0
294.006	-0.37104	-1.95962	0
294.858	-0.367987	-1.95966	0
295.698	-0.364857	-1.95963	0
296.47	-0.361804	-1.95962	0
297.22	-0.358731	-1.95962	0
297.555	-0.347109	-1.95966	0
297.559	-0.343789	-1.95962	0
297.594	-0.339781	-1.95961	0
297.618	-0.342968	-1.95962	0
297.623	-0.346766	-1.95961	0
297.626	-0.350487	-1.95961	0
297.637	-0.354056	-1.95964	0
297.649	-0.346327	-1.95959	0
297.659	-0.343197	-1.95968	0
297.677	-0.339094	-1.95966	0
297.685	-0.344514	-1.95963	0
297.688	-0.34106	-1.95963	0
297.704	-0.339228	-1.95961	0
297.711	-0.342472	-1.95963	0
297.718	-0.340659	-1.95964	0
297.725	-0.341957	-1.95956	0
297.732	-0.345602	-1.9596	0
297.739	-0.343025	-1.95965	0
297.752	-0.346174	-1.95964	0
297.761	-0.349304	-1.9596	0
297.77	-0.348254	-1.95971	0
297.772	-0.340583	-1.95963	0
297.793	-0.331804	-1.95963	0
297.806	-0.330621	-1.95959	0
297.816	-0.324133	-1.95961	0
297.842	-0.322377	-1.9596	0
297.852	-0.318637	-1.95964	0
297.863	-0.321995	-1.95957	0
297.866	-0.313255	-1.95962	0
297.9	-0.311843	-1.95964	0
297.921	-0.31148	-1.95959	0
297.931	-0.314915	-1.95964	0
297.944	-0.313599	-1.95963	0
297.961	-0.314686	-1.95964	0
297.969	-0.317911	-1.95957	0
297.98	-0.321022	-1.95959	0
297.988	-0.31585	-1.95966	0
298.003	-0.316614	-1.9597	0
298.006	-0.32106	-1.95959	0
298.009	-0.319858	-1.95967	0
298.014	-0.319934	-1.95963	0
298.032	-0.318637	-1.95964	0
298.04	-0.313618	-1.95962	0
298.06	-0.314686	-1.95962	0
298.078	-0.317873	-1.9596	0
298.088	-0.308446	-1.95962	0
298.11	-0.30503	-1.95961	0
298.119	-0.30816	-1.9596	0
298.127	-0.311385	-1.95962	0
298.132	-0.308732	-1.95964	0
298.144	-0.305145	-1.9596	0
298.153	-0.298923	-1.95966	0
298.166	-0.29982	-1.95968	0
298.173	-0.30316	-1.95963	0
298.18	-0.304019	-1.95963	0
298.181	-0.3044	-1.95964	0
298.187	-0.307587	-1.95961	0
298.192	-0.311423	-1.95961	0
298.195	-0.311385	-1.95959	0
298.204	-0.311957	-1.95963	0
298.213	-0.315049	-1.95964	0
298.221	-0.3119	-1.95961	0
298.23	-0.315163	-1.95963	0
298.242	-0.310164	-1.95958	0
298.263	-0.308293	-1.95958	0
298.264	-0.295698	-1.95959	0
298.269	-0.288771	-1.95974	0
298.271	-0.281996	-1.95959	0
298.276	-0.277951	-1.95959	0
298.29	-0.269573	-1.95964	0
298.294	-0.26192	-1.95965	0
298.297	-0.257455	-1.95959	0
298.311	-0.256062	-1.95961	0
298.314	-0.257684	-1.95966	0
298.322	-0.255031	-1.95967	0
298.333	-0.256024	-1.95959	0
298.34	-0.249325	-1.95962	0
298.354	-0.243791	-1.95963	0
298.365	-0.242226	-1.95963	0
298.368	-0.240089	-1.95961	0
298.382	-0.237207	-1.95962	0
298.391	-0.240719	-1.95963	0
298.397	-0.244822	-1.95966	0
298.403	-0.238257	-1.95959	0
298.414	-0.23486	-1.95957	0
298.421	-0.237971	-1.95962	0
298.429	-0.238123	-1.95964	0
298.432	-0.238963	-1.95963	0
298.437	-0.237131	-1.95963	0
298.445	-0.237818	-1.95961	0
298.454	-0.241081	-1.95957	0
298.466	-0.241043	-1.95953	0
298.467	-0.234058	-1.95965	0
298.479	-0.229803	-1.95963	0
298.485	-0.223658	-1.95961	0
298.501	-0.2182	-1.95961	0
298.516	-0.218734	-1.95963	0
298.522	-0.214937	-1.95963	0
298.536	-0.215051	-1.95958	0
298.549	-0.212074	-1.95969	0
298.557	-0.207437	-1.95972	0
298.56	-0.201502	-1.95969	0
298.572	-0.200471	-1.95962	0
298.582	-0.194861	-1.95962	0
298.602	-0.189327	-1.95959	0
298.609	-0.183964	-1.95961	0
298.619	-0.180109	-1.95967	0
298.654	-0.176274	-1.95967	0
298.687	-0.176693	-1.9596	0
298.697	-0.177151	-1.95966	0
298.712	-0.181617	-1.95958	0
298.717	-0.180186	-1.9596	0
298.724	-0.176732	-1.95957	0
298.746	-0.172266	-1.95964	0
298.749	-0.16782	-1.95963	0
298.757	-0.166503	-1.95964	0
298.777	-0.164671	-1.95961	0
298.781	-0.161179	-1.95961	0
298.807	-0.157648	-1.95959	0
298.813	-0.153679	-1.95964	0
298.831	-0.149957	-1.95961	0
298.854	-0.148717	-1.9596	0
298.886	-0.149366	-1.95961	0
298.933	-0.150492	-1.95959	0
298.952	-0.151446	-1.95955	0
298.96	-0.150263	-1.95961	0
298.984	-0.146656	-1.95962	0
298.991	-0.14324	-1.95961	0
299.016	-0.139939	-1.95959	0
299.026	-0.136542	-1.95963	0
299.08	-0.132935	-1.95968	0
299.086	-0.129538	-1.95957	0
299.11	-0.128317	-1.95967	0
299.167	-0.12471	-1.95963	0
299.191	-0.123546	-1.95959	0
299.209	-0.120092	-1.95961	0
299.3	-0.116886	-1.95957	0
299.391	-0.117668	-1.95961	0
299.47	-0.114443	-1.95963	0
299.572	-0.111371	-1.95961	0
299.639	-0.108184	-1.95961	0
299.661	-0.105054	-1.95962	0
299.805	-0.101962	-1.95961	0
299.952	-0.0988517	-1.95963	0
300.045	-0.0957411	-1.95953	0
300.143	-0.0926114	-1.95964	0
300.333	-0.0916382	-1.95961	0
300.538	-0.0884512	-1.95964	0
300.765	-0.0848253	-1.95964	0
301.183	-0.0816956	-1.95959	0
301.321	-0.0784896	-1.95965	0
301.751	-0.0752836	-1.95966	0
302.516	-0.0721539	-1.95965	0
304.017	-0.0690814	-1.95963	0
306.003	-0.066009	-1.95961	0
307.639	-0.0629366	-1.95959	0
309.634	-0.0598641	-1.95961	0
314.66	-0.0568107	-1.95962	0
323.662	-0.0568107	-1.95964	0
333.362	-0.056868	-1.95963	0
337.744	-0.0557993	-1.95966	0
345.267	-0.0575932	-1.95963	0
350.188	-0.0586618	-1.95959	0
358.714	-0.060761	-1.95961	0
369.022	-0.0605129	-1.95959	0
374.478	-0.0615244	-1.95962	0
382.394	-0.062803	-1.95965	0
394.831	-0.0656655	-1.95958	0
404.426	-0.0666578	-1.95959	0
414.062	-0.0693104	-1.95963	0
423.524	-0.0718676	-1.95964	0
425.752	-0.0720585	-1.9597	0

File: 2024-04-26_JP-measurements_sample-A9-05_C-cell_Cu-Li-Cellgard2400-separator_25muL-LiFSI-in-DME_outside-glovebox_sigma-0.02_added-OCV-0.1s_02_MB_C01.txt
time/s	Ewe/V	I/mA	error
60.053	2.74528	-0.0250252	0
60.1732	0.00939951	-16.1451	0
60.1736	0.00949497	-16.0859	0
60.174	0.00939951	-16.0286	0
60.1744	0.00939951	-15.9623	0
60.1748	0.00939951	-15.9088	0
60.1752	0.00945679	-15.8471	0
60.1756	0.00947588	-15.7802	0
60.176	0.00945679	-15.7299	0
60.1764	0.0094377	-15.6751	0
60.1768	0.00949497	-15.6133	0
60.1772	0.00947588	-15.5554	0
60.1776	0.00947588	-15.4987	0
60.178	0.00939951	-15.4484	0
60.1784	0.00947588	-15.3911	0
60.1788	0.00949497	-15.3331	0
60.1792	0.00945679	-15.2828	0
60.1796	0.00947588	-15.2268	0
60.18	0.00938042	-15.1739	0
60.1806	0.0094186	-15.1007	0
60.181	0.00949497	-15.0421	0
60.1814	0.00953315	-14.9911	0
60.1818	0.00945679	-14.9402	0
60.1822	0.0094377	-14.8873	0
60.1828	0.00934224	-14.809	0
60.1834	0.00947588	-14.7326	0
60.184	0.00949497	-14.6555	0
60.1846	0.00939951	-14.5836	0
60.1852	0.00939951	-14.5129	0
60.1856	0.0094186	-14.4619	0
60.1862	0.00947588	-14.3925	0
60.1868	0.00938042	-14.3231	0
60.1874	0.0094186	-14.2537	0
60.188	0.00939951	-14.1804	0
60.1886	0.0094377	-14.1104	0
60.1892	0.00947588	-14.0384	0
60.1898	0.00949497	-13.9786	0
60.1904	0.0094186	-13.9079	0
60.191	0.00939951	-13.8391	0
60.1916	0.0094377	-13.7799	0
60.192	0.00945679	-13.7295	0
60.1926	0.0094377	-13.6665	0
60.1932	0.00947588	-13.6105	0
60.1938	0.00947588	-13.5417	0
60.1944	0.00945679	-13.4767	0
60.195	0.0094186	-13.4232	0
60.1956	0.00949497	-13.3678	0
60.196	0.00939951	-13.3143	0
60.1966	0.00939951	-13.2583	0
60.1972	0.0094377	-13.2016	0
60.1978	0.00951406	-13.1443	0
60.1984	0.00939951	-13.0844	0
60.199	0.0094186	-13.0175	0
60.1996	0.0094186	-12.9615	0
60.2002	0.00930406	-12.9042	0
60.2008	0.0094377	-12.8539	0
60.2014	0.00947588	-12.7934	0
60.202	0.00947588	-12.7367	0
60.2026	0.00949497	-12.6832	0
60.2032	0.00938042	-12.6303	0
60.2038	0.00949497	-12.5775	0
60.2044	0.00945679	-12.5259	0
60.205	0.00949497	-12.4673	0
60.2056	0.00949497	-12.4145	0
60.2064	0.00955224	-12.3501	0
60.207	0.00936133	-12.2954	0
60.2076	0.0094186	-12.2451	0
60.2084	0.00945679	-12.1775	0
60.2092	0.00938042	-12.117	0
60.2098	0.00945679	-12.0616	0
60.2106	0.0094377	-11.9922	0
60.2114	0.00949497	-11.9304	0
60.2122	0.00951406	-11.8668	0
60.213	0.0094377	-11.8031	0
60.2138	0.00951406	-11.7445	0
60.2146	0.00947588	-11.677	0
60.2154	0.00938042	-11.6267	0
60.216	0.00939951	-11.5655	0
60.2168	0.00939951	-11.5108	0
60.2176	0.0094377	-11.4534	0
60.2184	0.00947588	-11.4031	0
60.2192	0.00947588	-11.3426	0
60.2198	0.0094377	-11.2879	0
60.2206	0.00949497	-11.2337	0
60.2214	0.00936133	-11.1764	0
60.2222	0.00939951	-11.1229	0
60.2232	0.00934224	-11.0522	0
60.224	0.00947588	-10.9987	0
60.225	0.0094186	-10.9312	0
60.226	0.00938042	-10.8644	0
60.2268	0.00945679	-10.8096	0
60.2278	0.00947588	-10.7434	0
60.2286	0.0094377	-10.693	0
60.2294	0.0094186	-10.6421	0
60.2304	0.0094377	-10.5886	0
60.2312	0.00947588	-10.5383	0
60.232	0.0094186	-10.4842	0
60.233	0.00949497	-10.4224	0
60.234	0.0094186	-10.36	0
60.235	0.00955224	-10.2988	0
60.236	0.00951406	-10.2396	0
60.2368	0.00947588	-10.1887	0
60.238	0.00949497	-10.1288	0
60.2388	0.00945679	-10.0753	0
60.24	0.00934224	-10.0091	0
60.2412	0.00945679	-9.94985	0
60.242	0.00951406	-9.89699	0
60.2432	0.0094377	-9.84286	0
60.244	0.0094377	-9.79191	0
60.245	0.00949497	-9.73841	0
60.2462	0.00945679	-9.67664	0
60.2472	0.00951406	-9.62314	0
60.2482	0.00949497	-9.57156	0
60.2494	0.00936133	-9.51297	0
60.2506	0.00947588	-9.44865	0
60.2518	0.00953315	-9.39197	0
60.2528	0.00951406	-9.33847	0
60.254	0.00947588	-9.28689	0
60.2552	0.00951406	-9.22766	0
60.2564	0.0094186	-9.16971	0
60.2576	0.00949497	-9.11621	0
60.2588	0.00949497	-9.05889	0
60.26	0.00960951	-9.00285	0
60.2612	0.00938042	-8.94681	0
60.2626	0.0094186	-8.89331	0
60.2638	0.0094377	-8.83918	0
60.2648	0.00951406	-8.78569	0
60.2662	0.0094377	-8.73092	0
60.2674	0.00947588	-8.67678	0
60.2688	0.00945679	-8.6252	0
60.27	0.0094377	-8.57298	0
60.2714	0.00936133	-8.51503	0
60.273	0.00947588	-8.44943	0
60.2744	0.00939951	-8.39402	0
60.276	0.00951406	-8.33161	0
60.2774	0.00945679	-8.27621	0
60.279	0.00939951	-8.22462	0
60.2804	0.00947588	-8.16731	0
60.2818	0.00938042	-8.11445	0
60.2834	0.00945679	-8.06032	0
60.285	0.00953315	-8.00236	0
60.2866	0.0094186	-7.94504	0
60.288	0.0094186	-7.89155	0
60.2898	0.00945679	-7.83551	0
60.2912	0.0096477	-7.7852	0
60.2928	0.00947588	-7.73488	0
60.2944	0.0094186	-7.67948	0
60.296	0.00947588	-7.62917	0
60.2976	0.0094377	-7.57822	0
60.2992	0.00939951	-7.52664	0
60.301	0.00936133	-7.47378	0
60.3028	0.00947588	-7.42028	0
60.3044	0.00951406	-7.36488	0
60.3062	0.00939951	-7.31329	0
60.3082	0.0094377	-7.25725	0
60.3102	0.00959042	-7.19802	0
60.312	0.00947588	-7.1407	0
60.3142	0.00949497	-7.08976	0
60.3162	0.0096477	-7.03308	0
60.3182	0.00945679	-6.97512	0
60.3204	0.00936133	-6.92099	0
60.3224	0.00959042	-6.86559	0
60.3244	0.00945679	-6.81273	0
60.3268	0.00945679	-6.75414	0
60.329	0.00938042	-6.69809	0
60.3312	0.00945679	-6.64651	0
60.3334	0.00951406	-6.59301	0
60.3358	0.00939951	-6.5427	0
60.3376	0.00951406	-6.48984	0
60.34	0.00960951	-6.43699	0
60.3424	0.00939951	-6.38031	0
60.3448	0.00957133	-6.32554	0
60.3476	0.0094186	-6.27013	0
60.3502	0.00951406	-6.21218	0
60.3528	0.00939951	-6.15805	0
60.3554	0.00949497	-6.10391	0
60.358	0.00939951	-6.04787	0
60.361	0.0094377	-5.9931	0
60.3636	0.00951406	-5.94279	0
60.3664	0.0094377	-5.88548	0
60.3694	0.00938042	-5.8288	0
60.3724	0.00949497	-5.77785	0
60.3754	0.00938042	-5.72117	0
60.3784	0.00947588	-5.66895	0
60.3812	0.00955224	-5.61609	0
60.3846	0.00945679	-5.5645	0
60.3874	0.00939951	-5.51292	0
60.3908	0.00953315	-5.45497	0
60.3944	0.00953315	-5.39829	0
60.3978	0.00959042	-5.34734	0
60.4012	0.00938042	-5.29639	0
60.4042	0.0094377	-5.24608	0
60.4082	0.00947588	-5.18813	0
60.4122	0.00949497	-5.13017	0
60.4162	0.00945679	-5.07604	0
60.4202	0.00947588	-5.02127	0
60.4238	0.00947588	-4.97032	0
60.4278	0.0094186	-4.91938	0
60.4316	0.00939951	-4.86843	0
60.436	0.00949497	-4.81302	0
60.4404	0.00947588	-4.75889	0
60.4446	0.00953315	-4.70412	0
60.4496	0.00945679	-4.64999	0
60.4542	0.00951406	-4.59904	0
60.4588	0.00938042	-4.54045	0
60.4642	0.0094377	-4.48186	0
60.4694	0.00936133	-4.42964	0
60.5036	0.00934224	-4.1129	0
60.5096	0.0094377	-4.06032	0
60.5156	0.0094377	-4.00862	0
60.522	0.00947588	-3.95617	0
60.5284	0.0094186	-3.90511	0
60.535	0.00949497	-3.8538	0
60.5416	0.00951406	-3.80312	0
60.5486	0.00939951	-3.75149	0
60.5558	0.0094377	-3.69948	0
60.5632	0.0094377	-3.64944	0
60.5708	0.00939951	-3.59781	0
60.5786	0.00947588	-3.54663	0
60.5868	0.00945679	-3.49576	0
60.595	0.00936133	-3.44503	0
60.6036	0.00949497	-3.39422	0
60.6124	0.0094186	-3.34406	0
60.6216	0.00947588	-3.29217	0
60.6312	0.0094186	-3.24214	0
60.641	0.00936133	-3.19172	0
60.651	0.0094377	-3.14155	0
60.6614	0.0094377	-3.09088	0
60.6724	0.00939951	-3.0402	0
60.6838	0.00939951	-2.98991	0
60.6956	0.0094186	-2.93961	0
60.7078	0.0094377	-2.88932	0
60.7204	0.0094186	-2.83928	0
60.7338	0.0094377	-2.78918	0
60.748	0.00949497	-2.73774	0
60.7624	0.00945679	-2.68771	0
60.7778	0.00949497	-2.63754	0
60.7936	0.00949497	-2.58737	0
60.8106	0.0094186	-2.53683	0
60.8284	0.0094186	-2.48615	0
60.8468	0.0094186	-2.43599	0
60.8664	0.00934224	-2.38557	0
60.887	0.00957133	-2.33438	0
60.9086	0.00949497	-2.28403	0
60.9312	0.00947588	-2.23373	0
60.9552	0.00938042	-2.1837	0
60.9804	0.00945679	-2.13245	0
61.0074	0.00951406	-2.08158	0
61.0356	0.00951406	-2.03135	0
61.065	0.00953315	-1.98081	0
61.0968	0.0094186	-1.93026	0
61.1298	0.00951406	-1.87984	0
61.165	0.00934224	-1.82923	0
61.202	0.00947588	-1.77887	0
61.2416	0.00939951	-1.72845	0
61.2828	0.00938042	-1.67809	0
61.3276	0.0094186	-1.6278	0
61.3746	0.0094377	-1.57745	0
61.4258	0.00939951	-1.52741	0
61.48	0.00949497	-1.47731	0
61.537	0.00947588	-1.42714	0
61.5996	0.00947588	-1.3771	0
61.668	0.00939951	-1.32687	0
61.7418	0.00951406	-1.27677	0
61.8212	0.00945679	-1.22629	0
61.9078	0.00947588	-1.17625	0
62.0038	0.0094186	-1.12583	0
62.1088	0.00947588	-1.07579	0
62.2254	0.00934224	-1.0255	0
62.3546	0.00945679	-0.975269	0
62.4992	0.00932315	-0.925167	0
62.6626	0.00939951	-0.874556	0
62.85	0.00949497	-0.824327	0
63.0632	0.00953315	-0.773907	0
63.3094	0.00947588	-0.723551	0
63.5948	0.00951406	-0.673449	0
63.9374	0.00945679	-0.623347	0
64.3312	0.00949497	-0.572863	0
64.8202	0.00947588	-0.522762	0
65.0528	0.00949497	-0.501817	0
65.0534	0.00947588	-0.50169	0
65.7068	0.0094377	-0.451652	0
66.591	0.0094186	-0.401612	0
67.7234	0.00936133	-0.351591	0
69.296	0.0094377	-0.301552	0
71.5946	0.00955224	-0.251538	0
75.246	0.00939951	-0.201473	0
81.754	0.00947588	-0.151383	0
91.754	0.00951406	-0.112664	0
101.754	0.00939951	-0.0913531	0
111.754	0.00953315	-0.0766259	0
121.754	0.0094377	-0.0659672	0
131.754	0.0094186	-0.0579255	0
141.754	0.00945679	-0.0521633	0
151.754	0.00928497	-0.0472287	0
161.754	0.00938042	-0.0433849	0
171.754	0.0094377	-0.0399345	0
174.29	0.00939951	-0.039177	0
174.29	0.00945679	-0.0392801	0