Folder: MASTER-THESIS/EXPERIMENTAL/Data/Battery-cycling/JP-measurements/C-cell (part 2)

File: 2024-04-22_JP-measurements_sample-A9-02_C-cell_Cu-Li-Cellgard2400-separator_25muL-LiFSI-in-DME_outside-glovebox_sigma-0.02_03_CP_C11.txt
time/s	Ewe/V	I/mA	error
204.309	-0.00339426	-0.24223	1
204.31	-0.00476858	-0.242231	0
204.311	-0.00616199	-0.242233	0
204.312	-0.00734543	-0.24223	0
204.313	-0.00843343	-0.242239	0
204.314	-0.00969323	-0.242238	0
204.315	-0.0107431	-0.242227	0
204.316	-0.0117738	-0.242226	0
204.317	-0.0129763	-0.242229	0
204.318	-0.0140452	-0.242233	0
204.319	-0.0150569	-0.242233	0
204.32	-0.0160686	-0.242232	0
204.321	-0.0170993	-0.242232	0
204.322	-0.0181109	-0.242228	0
204.323	-0.0191608	-0.242233	0
204.324	-0.0201724	-0.242232	0
204.325	-0.0212413	-0.242233	0
204.327	-0.0225584	-0.242232	0
204.328	-0.0236273	-0.242233	0
204.329	-0.0247344	-0.242235	0
204.331	-0.0257842	-0.242231	0
204.332	-0.0268532	-0.242226	0
204.333	-0.0279221	-0.24223	0
204.335	-0.0291246	-0.242233	0
204.336	-0.0301935	-0.242231	0
204.337	-0.0312243	-0.242232	0
204.339	-0.0323504	-0.242234	0
204.34	-0.0335148	-0.242234	0
204.342	-0.0345455	-0.242232	0
204.343	-0.0356335	-0.242233	0
204.345	-0.0366452	-0.242232	0
204.346	-0.0377332	-0.242232	0
204.348	-0.0387639	-0.24223	0
204.349	-0.0399283	-0.242239	0
204.351	-0.0411117	-0.242235	0
204.353	-0.0421806	-0.24223	0
204.354	-0.0431923	-0.242228	0
204.356	-0.044204	-0.24223	0
204.358	-0.0452538	-0.242233	0
204.359	-0.046399	-0.242232	0
204.361	-0.047468	-0.242235	0
204.363	-0.0486896	-0.242232	0
204.365	-0.0497012	-0.242232	0
204.367	-0.0507129	-0.242235	0
204.368	-0.0518009	-0.242229	0
204.371	-0.052908	-0.24223	0
204.372	-0.0539196	-0.24223	0
204.374	-0.0550267	-0.242234	0
204.376	-0.0562293	-0.242234	0
204.379	-0.0573554	-0.242229	0
204.381	-0.0584625	-0.242233	0
204.383	-0.0596269	-0.24223	0
204.385	-0.0607149	-0.242233	0
204.387	-0.0617456	-0.242228	0
204.389	-0.0627573	-0.242233	0
204.391	-0.0638644	-0.242233	0
204.393	-0.0649524	-0.242229	0
204.396	-0.0660022	-0.24223	0
204.398	-0.0671284	-0.242231	0
204.4	-0.0682355	-0.242235	0
204.403	-0.0694189	-0.242229	0
204.405	-0.0704497	-0.242233	0
204.408	-0.0714804	-0.242231	0
204.41	-0.0724921	-0.242232	0
204.412	-0.0735037	-0.242232	0
204.415	-0.0745344	-0.242234	0
204.417	-0.0756415	-0.242227	0
204.42	-0.0767868	-0.242237	0
204.423	-0.0778557	-0.242231	0
204.425	-0.0789056	-0.242232	0
204.428	-0.0799554	-0.242234	0
204.431	-0.0810434	-0.242234	0
204.434	-0.0821123	-0.242235	0
204.436	-0.0831621	-0.242233	0
204.439	-0.084231	-0.242225	0
204.442	-0.085319	-0.242233	0
204.445	-0.0863498	-0.242232	0
204.449	-0.0875141	-0.24223	0
204.452	-0.0885831	-0.242232	0
204.455	-0.0896329	-0.242232	0
204.458	-0.0906445	-0.242233	0
204.462	-0.091828	-0.24223	0
204.465	-0.0929733	-0.242234	0
204.469	-0.0939849	-0.242236	0
204.472	-0.0950347	-0.242224	0
204.476	-0.0960655	-0.24223	0
204.479	-0.0970962	-0.242229	0
204.483	-0.098127	-0.242233	0
204.486	-0.0991768	-0.242228	0
204.49	-0.100284	-0.242232	0
204.494	-0.101296	-0.24223	0
204.497	-0.102307	-0.242229	0
204.502	-0.103395	-0.242231	0
204.506	-0.104407	-0.242234	0
204.51	-0.105457	-0.24223	0
204.514	-0.106526	-0.242228	0
204.518	-0.107537	-0.242228	0
204.523	-0.108549	-0.242233	0
204.527	-0.109561	-0.242233	0
204.531	-0.110572	-0.242227	0
204.537	-0.111679	-0.242235	0
204.541	-0.112691	-0.24223	0
204.546	-0.113741	-0.242228	0
204.551	-0.114772	-0.24223	0
204.557	-0.115783	-0.242234	0
204.562	-0.116795	-0.24223	0
204.567	-0.117806	-0.24223	0
204.572	-0.118856	-0.242229	0
204.578	-0.119868	-0.242232	0
204.584	-0.120994	-0.242233	0
204.591	-0.122101	-0.242233	0
204.597	-0.123113	-0.242233	0
204.604	-0.124163	-0.242231	0
204.61	-0.125213	-0.242232	0
204.617	-0.126281	-0.242235	0
204.625	-0.12735	-0.242234	0
204.632	-0.128381	-0.242235	0
204.64	-0.129412	-0.242234	0
204.647	-0.130423	-0.242235	0
204.656	-0.131435	-0.24223	0
204.663	-0.132447	-0.242231	0
204.672	-0.133497	-0.242233	0
204.68	-0.134508	-0.242239	0
204.69	-0.135558	-0.242232	0
204.699	-0.13657	-0.242234	0
204.709	-0.137601	-0.242235	0
204.719	-0.138612	-0.24223	0
204.73	-0.139624	-0.242233	0
204.741	-0.140712	-0.242231	0
204.754	-0.141743	-0.242232	0
204.766	-0.142773	-0.242235	0
204.78	-0.143804	-0.242237	0
204.794	-0.144835	-0.242235	0
204.808	-0.145904	-0.242232	0
204.824	-0.146934	-0.242234	0
204.841	-0.147984	-0.242234	0
204.861	-0.149034	-0.242234	0
204.879	-0.150046	-0.24223	0
204.901	-0.151057	-0.242234	0
204.926	-0.152069	-0.242238	0
204.955	-0.153119	-0.242229	0
204.994	-0.15415	-0.242226	0
205.042	-0.15518	-0.242232	0
205.249	-0.154169	-0.242233	0
205.288	-0.153157	-0.242229	0
205.323	-0.152145	-0.242233	0
205.353	-0.151096	-0.242232	0
205.387	-0.150046	-0.242228	0
205.415	-0.149034	-0.242235	0
205.443	-0.148003	-0.242233	0
205.47	-0.146992	-0.242233	0
205.498	-0.145961	-0.242235	0
205.524	-0.144911	-0.242225	0
205.551	-0.143861	-0.242237	0
205.579	-0.142831	-0.242229	0
205.608	-0.141762	-0.242235	0
205.64	-0.14075	-0.242226	0
205.669	-0.139681	-0.24223	0
205.704	-0.138669	-0.242232	0
205.738	-0.137601	-0.24223	0
205.774	-0.136589	-0.242234	0
205.811	-0.135558	-0.242237	0
205.853	-0.134508	-0.242234	0
205.902	-0.133478	-0.24223	0
205.95	-0.132466	-0.242233	0
206.006	-0.131416	-0.242234	0
206.068	-0.130309	-0.242232	0
206.144	-0.129278	-0.24223	0
206.228	-0.128228	-0.242237	0
206.331	-0.127217	-0.242232	0
206.453	-0.126205	-0.24223	0
206.615	-0.125117	-0.24223	0
206.835	-0.124105	-0.242231	0
207.187	-0.123094	-0.242232	0
208	-0.122063	-0.242233	0
211.129	-0.123075	-0.242233	0
213.109	-0.124105	-0.24223	0
215.267	-0.125117	-0.242237	0
218.015	-0.126148	-0.242237	0
223.015	-0.126911	-0.242235	0
228.015	-0.127159	-0.242231	0
233.015	-0.126682	-0.242232	0
238.015	-0.12611	-0.242232	0
243.015	-0.125346	-0.242233	0
247.692	-0.124258	-0.242229	0
252.692	-0.12359	-0.242228	0
257.692	-0.122865	-0.242228	0
262.189	-0.121853	-0.242232	0
267.189	-0.121242	-0.242234	0
272.189	-0.120612	-0.242238	0
276.794	-0.119601	-0.242231	0
281.794	-0.119104	-0.242232	0
286.605	-0.118093	-0.242232	0
291.605	-0.117692	-0.242233	0
296.605	-0.116986	-0.242233	0
301.605	-0.116279	-0.24223	0
306.605	-0.115611	-0.242236	0
311.605	-0.115096	-0.242232	0
316.605	-0.11439	-0.242235	0
321.605	-0.113779	-0.242235	0
326.605	-0.113359	-0.242237	0
331.605	-0.112748	-0.242236	0
336.605	-0.112386	-0.242232	0
341.605	-0.111794	-0.242237	0
346.605	-0.111278	-0.24223	0
351.605	-0.110706	-0.242226	0
356.605	-0.110362	-0.242233	0
361.605	-0.109923	-0.242233	0
366.605	-0.109484	-0.242235	0
371.605	-0.109026	-0.242235	0
376.605	-0.10874	-0.242232	0
381.605	-0.108243	-0.242234	0
384.308	-0.108034	-0.24223	0

File: 2024-04-22_JP-measurements_sample-A9-02_C-cell_Cu-Li-Cellgard2400-separator_25muL-LiFSI-in-DME_outside-glovebox_sigma-0.02_added-OCV-0.1s_04_CP_C11.txt
time/s	Ewe/V	I/mA	error
182.44	-0.036954	-1.94538	0
182.445	-0.141436	-1.95955	0
182.45	-0.18488	-1.95956	0
182.455	-0.218245	-1.95959	0
182.46	-0.248385	-1.95958	0
182.47	-0.284824	-1.95962	0
182.481	-0.315097	-1.95957	0
182.499	-0.343748	-1.95955	0
182.531	-0.369612	-1.9596	0
184.311	-0.388566	-1.95963	0
187.264	-0.413342	-1.9596	0
190.022	-0.438099	-1.9597	0
192.812	-0.46297	-1.95964	0
195.749	-0.487689	-1.9596	0
198.839	-0.512293	-1.95969	0
202.223	-0.53705	-1.95963	0
205.987	-0.561616	-1.9596	0
210.402	-0.586392	-1.9596	0
215.633	-0.611053	-1.95965	0
222.886	-0.635676	-1.95965	0
233.566	-0.60462	-1.95968	0
233.595	-0.611587	-1.95958	0
233.616	-0.608724	-1.9597	0
233.641	-0.600898	-1.95963	0
233.652	-0.608266	-1.95974	0
233.667	-0.605823	-1.95937	0
233.686	-0.592748	-1.95964	0
233.703	-0.598646	-1.95933	0
233.714	-0.589102	-1.95957	0
233.726	-0.58204	-1.95969	0
233.737	-0.584769	-1.9596	0
233.748	-0.576485	-1.95975	0
233.757	-0.578718	-1.95972	0
233.768	-0.58246	-1.95962	0
233.782	-0.584292	-1.95967	0
233.794	-0.573813	-1.95962	0
233.805	-0.578604	-1.95965	0
233.824	-0.571522	-1.95964	0
233.847	-0.56612	-1.95962	0
233.866	-0.584254	-1.95971	0
233.888	-0.543444	-1.95967	0
233.911	-0.535656	-1.95958	0
233.927	-0.554095	-1.95961	0
233.951	-0.548063	-1.95946	0
233.97	-0.522753	-1.9597	0
233.997	-0.546803	-1.95967	0
234.012	-0.55503	-1.95973	0
234.025	-0.549571	-1.9596	0
234.033	-0.539455	-1.95967	0
234.045	-0.553198	-1.95959	0
234.064	-0.532984	-1.95973	0
234.078	-0.534893	-1.95966	0
234.09	-0.535274	-1.95967	0
234.108	-0.538214	-1.95958	0
234.12	-0.523994	-1.95953	0
234.134	-0.505097	-1.95965	0
234.156	-0.495896	-1.95963	0
234.173	-0.499294	-1.95953	0
234.182	-0.526322	-1.95983	0
234.195	-0.516969	-1.95965	0
234.207	-0.501661	-1.95963	0
234.223	-0.497691	-1.95953	0
234.235	-0.45606	-1.9596	0
234.246	-0.479614	-1.9596	0
234.255	-0.496374	-1.95962	0
234.266	-0.487021	-1.95958	0
234.278	-0.489788	-1.95964	0
234.293	-0.461825	-1.95962	0
234.305	-0.479576	-1.9596	0
234.312	-0.475969	-1.95968	0
234.334	-0.441057	-1.95967	0
234.347	-0.450086	-1.95964	0
234.36	-0.465967	-1.95956	0
234.373	-0.447013	-1.9596	0
234.383	-0.447108	-1.95967	0
234.396	-0.424374	-1.95988	0
234.408	-0.454037	-1.95963	0
234.418	-0.432277	-1.95961	0
234.433	-0.429624	-1.95979	0
234.442	-0.439988	-1.95965	0
234.463	-0.422657	-1.9596	0
234.477	-0.426875	-1.95962	0
234.489	-0.432048	-1.95965	0
234.5	-0.433193	-1.9596	0
234.509	-0.457854	-1.95958	0
234.524	-0.403359	-1.95967	0
234.539	-0.438385	-1.95956	0
234.549	-0.430673	-1.95959	0
234.57	-0.428268	-1.95966	0
234.582	-0.401622	-1.95962	0
234.598	-0.413055	-1.95964	0
234.619	-0.397117	-1.95963	0
234.629	-0.411509	-1.95971	0
234.649	-0.378029	-1.95966	0
234.669	-0.369134	-1.95964	0
234.697	-0.358846	-1.95963	0
234.719	-0.371444	-1.9596	0
234.743	-0.375281	-1.95955	0
234.76	-0.383584	-1.95968	0
234.801	-0.350944	-1.95965	0
234.841	-0.367378	-1.95958	0
234.866	-0.363427	-1.95961	0
234.891	-0.352337	-1.95972	0
234.931	-0.363618	-1.95963	0
234.949	-0.364286	-1.95969	0
234.98	-0.346611	-1.95972	0
234.998	-0.363942	-1.95965	0
235.019	-0.350848	-1.95965	0
235.046	-0.339777	-1.9596	0
235.072	-0.340388	-1.95956	0
235.092	-0.354036	-1.95963	0
235.121	-0.334891	-1.95962	0
235.185	-0.318494	-1.95965	0
235.245	-0.313913	-1.95967	0
235.299	-0.328096	-1.95968	0
235.356	-0.335158	-1.95962	0
235.425	-0.327103	-1.95967	0
235.469	-0.324144	-1.9597	0
235.554	-0.316261	-1.95962	0
235.613	-0.324202	-1.95974	0
235.696	-0.324087	-1.95966	0
235.761	-0.324087	-1.9596	0
235.823	-0.318265	-1.95957	0
235.883	-0.316204	-1.9596	0
235.956	-0.312558	-1.95967	0
236.042	-0.306965	-1.95963	0
236.127	-0.297517	-1.95972	0
236.237	-0.302232	-1.95961	0
236.325	-0.308168	-1.95969	0
236.408	-0.293394	-1.95965	0
236.515	-0.286885	-1.95963	0
236.623	-0.293413	-1.95962	0
236.773	-0.286866	-1.95964	0
236.917	-0.292974	-1.95963	0
237.082	-0.292554	-1.95969	0
237.286	-0.29494	-1.95972	0
237.403	-0.301697	-1.95964	0
237.535	-0.306202	-1.95962	0
237.78	-0.304198	-1.95963	0
237.934	-0.307557	-1.95961	0
238.219	-0.298624	-1.95967	0
238.441	-0.301296	-1.95965	0
238.632	-0.28637	-1.95963	0
238.908	-0.295494	-1.95963	0
239.191	-0.311718	-1.95964	0
239.419	-0.328382	-1.95969	0
239.68	-0.31336	-1.95965	0
239.988	-0.318361	-1.95963	0
240.268	-0.332257	-1.95963	0
240.654	-0.336456	-1.95967	0
240.836	-0.330195	-1.95967	0
241.043	-0.32821	-1.95969	0
241.449	-0.333058	-1.95961	0
241.892	-0.335521	-1.95957	0
242.265	-0.332619	-1.95971	0
242.615	-0.330062	-1.95965	0
242.911	-0.31733	-1.95964	0
243.463	-0.319544	-1.95963	0
243.891	-0.330596	-1.95964	0
244.56	-0.3368	-1.95959	0
245.279	-0.352299	-1.95969	0
245.833	-0.359896	-1.95967	0
246.179	-0.357567	-1.95961	0
246.571	-0.341209	-1.95963	0
247.047	-0.354914	-1.95962	0
247.296	-0.363122	-1.95969	0
247.42	-0.353559	-1.95967	0
247.901	-0.355639	-1.9596	0
248.312	-0.352375	-1.95958	0
248.774	-0.349474	-1.95967	0
249.123	-0.365279	-1.95963	0
249.728	-0.350314	-1.95966	0
250.157	-0.361499	-1.95966	0
250.65	-0.355677	-1.95962	0
251.263	-0.359304	-1.95965	0
251.619	-0.363389	-1.95965	0
252.025	-0.358197	-1.95963	0
252.899	-0.373353	-1.95967	0
253.251	-0.365298	-1.95967	0
253.436	-0.365412	-1.95963	0
253.644	-0.357071	-1.95963	0
254.16	-0.359151	-1.95967	0
254.583	-0.351726	-1.9596	0
255.337	-0.349665	-1.95969	0
255.997	-0.342736	-1.95971	0
256.06	-0.329928	-1.95969	0
256.136	-0.323133	-1.95961	0
256.207	-0.323648	-1.95961	0
256.283	-0.302575	-1.9596	0
256.317	-0.317712	-1.95962	0
256.385	-0.303052	-1.95966	0
256.458	-0.309638	-1.9597	0
256.527	-0.305534	-1.95962	0
256.579	-0.292077	-1.9596	0
256.623	-0.300075	-1.95965	0
256.69	-0.291103	-1.9596	0
256.777	-0.280281	-1.95971	0
256.833	-0.27465	-1.95963	0
256.874	-0.252393	-1.95967	0
256.945	-0.244835	-1.95958	0
257.032	-0.231378	-1.95965	0
257.163	-0.233458	-1.95963	0
257.279	-0.230557	-1.95966	0
257.428	-0.218054	-1.95966	0
257.543	-0.219982	-1.95957	0
257.671	-0.218684	-1.95964	0
257.844	-0.199902	-1.9596	0
258.026	-0.201315	-1.95963	0
258.221	-0.197631	-1.9596	0
258.452	-0.193584	-1.95966	0
258.67	-0.181578	-1.9596	0
259.258	-0.181406	-1.95965	0
260.112	-0.169209	-1.95961	0
260.708	-0.171079	-1.95965	0
261.583	-0.159646	-1.9596	0
263.101	-0.163941	-1.95967	0
264.272	-0.173981	-1.95963	0
265.553	-0.175241	-1.95965	0
267.161	-0.183429	-1.95962	0
268.457	-0.184823	-1.95967	0
269.833	-0.190893	-1.95961	0
270.87	-0.204693	-1.95965	0
272.194	-0.2104	-1.95969	0
273.288	-0.210572	-1.9596	0
274.375	-0.218054	-1.95962	0
275.637	-0.221261	-1.95967	0
276.334	-0.21815	-1.95965	0
277.605	-0.231149	-1.95967	0
278.832	-0.229641	-1.95963	0
280.127	-0.235157	-1.95962	0
281.089	-0.234546	-1.95965	0
281.56	-0.245045	-1.95959	0
282.455	-0.241494	-1.95962	0
283.337	-0.241017	-1.9596	0
284.082	-0.229927	-1.95955	0
285.203	-0.229564	-1.95966	0
286.137	-0.24285	-1.95964	0
287.155	-0.254073	-1.95968	0
288.229	-0.254035	-1.95965	0
289.464	-0.266557	-1.95961	0
290.614	-0.258998	-1.95962	0
291.823	-0.264419	-1.95966	0
292.805	-0.248309	-1.95962	0
293.86	-0.258253	-1.95968	0
294.995	-0.255486	-1.9596	0
295.941	-0.255085	-1.95967	0
297.237	-0.256784	-1.95962	0
297.557	-0.262014	-1.95952	0
297.839	-0.257967	-1.95965	0
298.633	-0.260353	-1.95955	0
299.487	-0.255696	-1.95963	0
300.642	-0.26335	-1.95963	0
301.493	-0.255677	-1.95967	0
302.841	-0.245159	-1.95963	0
303.698	-0.25058	-1.95963	0
305.073	-0.241819	-1.95962	0
306.38	-0.244338	-1.95965	0
308.199	-0.246133	-1.95963	0
310.866	-0.249855	-1.95967	0
312.114	-0.253462	-1.95962	0
313.338	-0.244758	-1.95963	0
314.026	-0.248328	-1.95967	0
315.761	-0.249148	-1.95968	0
317.128	-0.242544	-1.95965	0
318.132	-0.252775	-1.95969	0
319.651	-0.251611	-1.95962	0
321.072	-0.235157	-1.95963	0
322.641	-0.228343	-1.95963	0
324.867	-0.229889	-1.95965	0
325.918	-0.244682	-1.95963	0
327.423	-0.24075	-1.9596	0
330.21	-0.227617	-1.9596	0
331.694	-0.235081	-1.95963	0
334.262	-0.245178	-1.95965	0
336.247	-0.239891	-1.95963	0
338.321	-0.238059	-1.95966	0
340.155	-0.24201	-1.9597	0
342.129	-0.23657	-1.95965	0
343.86	-0.23029	-1.95967	0
345.796	-0.235119	-1.95967	0
346.203	-0.232561	-1.95963	0
346.905	-0.234718	-1.95965	0
347.53	-0.232218	-1.95967	0
348.159	-0.221815	-1.95967	0
349.196	-0.210477	-1.9597	0
349.751	-0.206048	-1.95969	0
350.17	-0.195283	-1.95962	0
351.103	-0.187686	-1.95958	0
352.101	-0.179745	-1.95963	0
353.241	-0.178772	-1.95966	0
354.195	-0.184613	-1.95967	0
355.712	-0.179688	-1.95962	0
357.076	-0.1853	-1.95963	0
358.425	-0.183906	-1.9597	0
360.507	-0.185414	-1.95965	0
362.383	-0.189308	-1.95967	0
362.44	-0.187648	-1.95965	0

File: 2024-04-23_JP-measurements_sample-A7-02_C-cell_Cu-Li-Cellgard2400-separator_25muL-LiFSI-in-DME_outside-glovebox_sigma-0.02_added-OCV-0.1s_04_CP_C10.txt
time/s	Ewe/V	I/mA	error
9519.11	0.00922905	-0.019311	0
9519.19	0.00139398	-0.019451	0
9519.34	-0.00599134	-0.0194319	0
9519.5	-0.0132812	-0.019451	0
9519.7	-0.0205711	-0.019451	0
9519.91	-0.0278801	-0.0194383	0
9520.15	-0.0352273	-0.0194128	0
9520.42	-0.0424981	-0.0194256	0
9520.71	-0.0496353	-0.0194893	0
9521.05	-0.0570207	-0.0194702	0
9521.44	-0.0642915	-0.0194829	0
9521.89	-0.0714478	-0.019502	0
9522.44	-0.0786423	-0.019502	0
9523.28	-0.0858749	-0.0194001	0
9525.15	-0.0828216	-0.0194956	0
9525.9	-0.0755508	-0.0195338	0
9526.66	-0.0683372	-0.0195084	0
9527.65	-0.061219	-0.0194702	0
9529.4	-0.0540436	-0.0193683	0
9533.86	-0.0469255	-0.0194192	0
9552.51	-0.0398073	-0.0194765	0
9618.01	-0.0344449	-0.019502	0
9688.01	-0.0315251	-0.0194638	0
9758.01	-0.0292923	-0.0194893	0
9828.01	-0.0279183	-0.0194893	0
9898.01	-0.0267733	-0.0194829	0
9968.01	-0.0260863	-0.0195211	0
10038	-0.0253229	-0.019451	0
10108	-0.0249222	-0.0194829	0
10178	-0.0245978	-0.0194638	0
10248	-0.0242161	-0.0194447	0
10318	-0.0238535	-0.0195402	0
10388	-0.0236818	-0.0195275	0
10458	-0.0233955	-0.0194638	0
10528	-0.0233001	-0.0194893	0
10598	-0.0229566	-0.0195147	0
10668	-0.0228039	-0.0194574	0
10738	-0.0227085	-0.0195147	0
10808	-0.0225177	-0.0194638	0
10878	-0.0223459	-0.0195211	0
10948	-0.0222696	-0.0194765	0
11018	-0.0221742	-0.019502	0
11088	-0.0220406	-0.0194893	0
11158	-0.0218688	-0.0195529	0
11228	-0.0217352	-0.0195147	0
11298	-0.0218116	-0.0194702	0
11368	-0.0215635	-0.0194956	0
11438	-0.0215826	-0.0194574	0
11508	-0.0214299	-0.0194638	0
11578	-0.0213345	-0.0193937	0
11648	-0.0213727	-0.0194638	0
11718	-0.0210864	-0.0195211	0
11788	-0.0210482	-0.0194956	0
11858	-0.0211627	-0.0194638	0
11928	-0.0210864	-0.0195084	0
11998	-0.0210864	-0.019502	0
12068	-0.0209528	-0.0195275	0
12138	-0.0208765	-0.0194447	0
12208	-0.0208001	-0.0195593	0
12278	-0.020762	-0.0195147	0
12348	-0.0206666	-0.0194702	0
12418	-0.0205711	-0.019502	0
12488	-0.0205521	-0.0194893	0
12558	-0.0204185	-0.0194893	0
12628	-0.0203421	-0.0195466	0
12698	-0.0204185	-0.0195466	0
12768	-0.0203994	-0.0195275	0
12838	-0.020304	-0.0195275	0
12908	-0.0203231	-0.0194893	0
12978	-0.0201704	-0.0194893	0
13048	-0.0200941	-0.0194956	0
13118	-0.0202086	-0.0195466	0
13188	-0.0200559	-0.0194702	0
13258	-0.0199796	-0.0194702	0
13328	-0.0199223	-0.0194829	0
13398	-0.0198651	-0.0195466	0
13468	-0.0199032	-0.0194893	0
13538	-0.019846	-0.0195147	0
13608	-0.0197887	-0.0195211	0
13678	-0.0197315	-0.019451	0
13748	-0.0197506	-0.019451	0
13818	-0.0197315	-0.0195084	0
13888	-0.0196742	-0.019502	0
13958	-0.0195597	-0.0194702	0
14028	-0.0196933	-0.0195529	0
14098	-0.0195406	-0.0194638	0
14168	-0.0195025	-0.0194447	0
14238	-0.0195406	-0.0194829	0
14308	-0.0194643	-0.0195084	0
14378	-0.019388	-0.0195402	0
14448	-0.0194643	-0.0194383	0
14518	-0.0195025	-0.0194574	0
14588	-0.0193689	-0.0195084	0
14658	-0.0193116	-0.0194893	0
14728	-0.0192353	-0.0194638	0
14798	-0.0193689	-0.0194893	0
14868	-0.0193307	-0.0195084	0
14938	-0.0191971	-0.0194829	0
15008	-0.0192353	-0.0195529	0
15078	-0.019159	-0.019502	0
15148	-0.0191971	-0.0194574	0
15218	-0.0191208	-0.0195338	0
15288	-0.019178	-0.0194065	0
15358	-0.0191971	-0.0195211	0
15428	-0.0191017	-0.0194638	0
15498	-0.0190445	-0.0195529	0
15568	-0.019178	-0.0194638	0
15638	-0.0190826	-0.0194893	0
15708	-0.0190063	-0.0194829	0
15778	-0.0190063	-0.019502	0
15848	-0.0190826	-0.0194829	0
15918	-0.0190826	-0.0194638	0
15988	-0.0190445	-0.0195593	0
16058	-0.0189681	-0.0194893	0
16128	-0.0189109	-0.0195275	0
16198	-0.0190063	-0.0195784	0
16268	-0.0188918	-0.0195338	0
16338	-0.0190063	-0.0194893	0
16408	-0.0189109	-0.0194702	0
16478	-0.0190445	-0.0194574	0
16548	-0.01893	-0.0194319	0
16618	-0.0190254	-0.0195529	0
16688	-0.0188727	-0.0195466	0
16758	-0.0188918	-0.0195211	0
16828	-0.0188918	-0.0195657	0
16898	-0.0187964	-0.0195657	0
16968	-0.0187582	-0.0194956	0
17038	-0.0188155	-0.0194956	0
17108	-0.0188345	-0.0195147	0
17178	-0.0187964	-0.0194702	0
17248	-0.0187773	-0.0195529	0
17318	-0.0188918	-0.0194956	0
17388	-0.0187391	-0.019502	0
17458	-0.0187964	-0.0194765	0
17528	-0.0186437	-0.0194956	0
17598	-0.0187773	-0.019451	0
17668	-0.0188155	-0.0195275	0
17738	-0.0187964	-0.0194893	0
17808	-0.0187391	-0.0194702	0
17878	-0.0187964	-0.0195084	0
17948	-0.018701	-0.0194638	0
18018	-0.0186628	-0.0194956	0
18088	-0.01872	-0.0194702	0
18158	-0.0188155	-0.0195402	0
18228	-0.01872	-0.0195211	0
18298	-0.0185483	-0.0195084	0
18368	-0.0185674	-0.0194829	0
18438	-0.0186628	-0.0194574	0
18508	-0.01872	-0.0194765	0
18578	-0.0185674	-0.0194638	0
18648	-0.0185483	-0.0195338	0
18718	-0.0186246	-0.0195338	0
18788	-0.0185292	-0.0195275	0
18858	-0.0185292	-0.0195147	0
18928	-0.0185674	-0.0195466	0
18998	-0.0185292	-0.0195911	0
19068	-0.0185674	-0.0195147	0
19138	-0.0185483	-0.0194765	0
19208	-0.0187773	-0.0194829	0
19278	-0.018491	-0.0194893	0
19348	-0.0185101	-0.019451	0
19418	-0.0184147	-0.0195275	0
19488	-0.018472	-0.0194956	0
19558	-0.0186055	-0.0194956	0
19628	-0.0184529	-0.0195275	0
19698	-0.0183193	-0.0194765	0
19768	-0.0183956	-0.019502	0
19838	-0.0183384	-0.0195211	0
19908	-0.0183384	-0.0195338	0
19978	-0.0183002	-0.0195211	0
20048	-0.0183193	-0.0195402	0
20118	-0.018262	-0.0194574	0
20188	-0.0183956	-0.0194447	0
20258	-0.018262	-0.0195211	0
20328	-0.0183193	-0.019502	0
20398	-0.0182811	-0.0195657	0
20468	-0.018243	-0.0195084	0
20538	-0.0182811	-0.0194192	0
20608	-0.018262	-0.0194956	0
20678	-0.0182239	-0.0194383	0
20748	-0.018243	-0.0195275	0
20818	-0.0182048	-0.0194829	0
20888	-0.0182048	-0.0195466	0
20958	-0.0182239	-0.0195338	0
21028	-0.0181666	-0.0195147	0
21098	-0.018262	-0.0194702	0
21168	-0.018262	-0.0194638	0
21238	-0.0180903	-0.0195211	0
21308	-0.018243	-0.019572	0
21378	-0.0181475	-0.0194956	0
21448	-0.0181285	-0.0194447	0
21518	-0.0181666	-0.0194702	0
21588	-0.0181285	-0.0194383	0
21658	-0.0181285	-0.0195275	0
21728	-0.0181475	-0.0195402	0
21798	-0.0181094	-0.0195275	0
21868	-0.0180521	-0.0195147	0
21938	-0.0180521	-0.019502	0
22008	-0.0181094	-0.0194383	0
22078	-0.0180903	-0.0195084	0
22148	-0.0180712	-0.0194447	0
22218	-0.018033	-0.0194702	0
22288	-0.0180521	-0.0194893	0
22358	-0.018033	-0.0194702	0
22428	-0.018033	-0.0194829	0
22498	-0.018014	-0.0195338	0
22568	-0.0178804	-0.0194893	0
22638	-0.0179758	-0.0195402	0
22708	-0.018033	-0.019502	0
22778	-0.018033	-0.0193874	0
22848	-0.0179185	-0.019502	0
22918	-0.0179949	-0.0194893	0
22988	-0.018014	-0.0194447	0
23058	-0.0178995	-0.0195211	0
23128	-0.0179949	-0.0194765	0
23198	-0.0179376	-0.0194383	0
23268	-0.0180903	-0.0194829	0
23338	-0.0179758	-0.0195211	0
23408	-0.0179758	-0.0194893	0
23478	-0.0180712	-0.019572	0
23548	-0.0179949	-0.0194893	0
23618	-0.0179185	-0.0195593	0
23688	-0.0179376	-0.019502	0
23758	-0.0179949	-0.0194829	0
23828	-0.0179758	-0.0194956	0
23898	-0.0178995	-0.0194638	0
23968	-0.0179949	-0.0194893	0
24038	-0.0178422	-0.019502	0
24108	-0.0178613	-0.0195275	0
24178	-0.0178995	-0.0195657	0
24248	-0.0179949	-0.0195275	0
24318	-0.0178995	-0.0195275	0
24388	-0.0178995	-0.0195147	0
24458	-0.0177849	-0.0195338	0
24528	-0.0179567	-0.0194256	0
24598	-0.0178995	-0.0195466	0
24668	-0.0179376	-0.0194702	0
24738	-0.0178995	-0.0195275	0
24808	-0.0179949	-0.0194447	0
24878	-0.0179376	-0.0195084	0
24948	-0.0179185	-0.0194829	0
25018	-0.0179185	-0.0195147	0
25088	-0.0179376	-0.0195084	0
25158	-0.0179567	-0.0195529	0
25228	-0.0177849	-0.0195338	0
25298	-0.0178804	-0.0195402	0
25368	-0.0178804	-0.0195338	0
25438	-0.0178422	-0.0195657	0
25508	-0.0177468	-0.0194447	0
25578	-0.0177277	-0.019502	0
25648	-0.0177849	-0.0194574	0
25718	-0.0178422	-0.0195275	0
25788	-0.0176895	-0.0195338	0
25858	-0.0177086	-0.0194765	0
25928	-0.0177849	-0.0195275	0
25998	-0.0178422	-0.0194956	0
26068	-0.017804	-0.0195402	0
26138	-0.0177277	-0.0194765	0
26208	-0.0177849	-0.0194574	0
26278	-0.0178231	-0.0194893	0
26348	-0.0178422	-0.0194765	0
26418	-0.0177277	-0.0195275	0
26488	-0.0177659	-0.0195084	0
26558	-0.0177277	-0.0195338	0
26628	-0.0176895	-0.0195084	0
26698	-0.0176895	-0.0195147	0
26768	-0.017575	-0.0195402	0
26838	-0.0177468	-0.0195147	0
26908	-0.0177277	-0.0194893	0
26978	-0.0177659	-0.0195211	0
27048	-0.0175941	-0.0195529	0
27118	-0.0175559	-0.0194893	0
27188	-0.0175941	-0.019451	0
27258	-0.0176704	-0.0195211	0
27328	-0.0175559	-0.019502	0
27398	-0.0176323	-0.0194447	0
27468	-0.017575	-0.0194638	0
27519.1	-0.0175369	-0.0195593	0