Folder: MASTER-THESIS/EXPERIMENTAL/Data/Battery-cycling/JP-measurements/C-cell (part 4)

File: 2024-04-29_JP-measurements_sample-A8.5-01_C-cell_Cu-Li-Cellgard2400-separator_25muL-LiFSI-in-DME_outside-glovebox_sigma-0.02_added-OCV-0.1s_02_MB_C03.txt
time/s	Ewe/V	I/mA	error
60.053	2.86949	-0.0250202	0
60.1732	0.00942262	-14.1646	0
60.1736	0.00934627	-14.1143	0
60.174	0.00932718	-14.05	0
60.1744	0.00944171	-13.9876	0
60.175	0.00936536	-13.9118	0
60.1754	0.00932718	-13.8558	0
60.176	0.00928901	-13.7749	0
60.1764	0.00944171	-13.7144	0
60.1768	0.00947988	-13.661	0
60.1774	0.00934627	-13.5909	0
60.1778	0.00938444	-13.5387	0
60.1782	0.00947988	-13.484	0
60.1786	0.00932718	-13.4298	0
60.1792	0.0093081	-13.3547	0
60.1798	0.00940353	-13.2783	0
60.1802	0.00936536	-13.2267	0
60.1808	0.00938444	-13.1529	0
60.1814	0.00936536	-13.0835	0
60.182	0.00934627	-13.0077	0
60.1824	0.00934627	-12.9568	0
60.183	0.00934627	-12.8906	0
60.1836	0.0093081	-12.8141	0
60.1842	0.00928901	-12.7441	0
60.1848	0.0093081	-12.6798	0
60.1854	0.00944171	-12.6047	0
60.186	0.00926992	-12.5455	0
60.1866	0.00944171	-12.4735	0
60.1872	0.00944171	-12.4156	0
60.1876	0.00946079	-12.364	0
60.1882	0.00946079	-12.3042	0
60.1888	0.00936536	-12.2386	0
60.1894	0.00940353	-12.1755	0
60.19	0.00936536	-12.1042	0
60.1906	0.00932718	-12.052	0
60.191	0.00936536	-11.9985	0
60.1916	0.00944171	-11.9451	0
60.1922	0.00938444	-11.8884	0
60.1928	0.00940353	-11.8241	0
60.1934	0.00934627	-11.7662	0
60.194	0.00940353	-11.6987	0
60.1946	0.00932718	-11.6452	0
60.1952	0.00944171	-11.5917	0
60.1958	0.00940353	-11.5369	0
60.1964	0.00944171	-11.4777	0
60.197	0.0093081	-11.4204	0
60.1976	0.00932718	-11.3619	0
60.1982	0.00934627	-11.3109	0
60.1988	0.00936536	-11.2574	0
60.1994	0.0093081	-11.2059	0
60.2	0.00946079	-11.1524	0
60.2006	0.00938444	-11.097	0
60.2014	0.00944171	-11.0295	0
60.202	0.00938444	-10.9773	0
60.2026	0.00938444	-10.9251	0
60.2034	0.00926992	-10.8563	0
60.2042	0.00938444	-10.7831	0
60.205	0.00928901	-10.7277	0
60.2058	0.00944171	-10.6558	0
60.2066	0.0093081	-10.5985	0
60.2072	0.00938444	-10.5463	0
60.208	0.00944171	-10.4902	0
60.2088	0.00944171	-10.4196	0
60.2096	0.00946079	-10.3661	0
60.2104	0.00936536	-10.3049	0
60.211	0.00934627	-10.254	0
60.2118	0.00946079	-10.1942	0
60.2126	0.00936536	-10.1356	0
60.2134	0.00925083	-10.0764	0
60.2142	0.00938444	-10.0235	0
60.215	0.00946079	-9.9675	0
60.2158	0.00946079	-9.90638	0
60.2166	0.00934627	-9.85098	0
60.2174	0.00944171	-9.79687	0
60.218	0.00940353	-9.74657	0
60.219	0.00938444	-9.68863	0
60.2198	0.00936536	-9.63515	0
60.2206	0.00942262	-9.57975	0
60.2214	0.00936536	-9.525	0
60.2224	0.00932718	-9.46133	0
60.2234	0.00936536	-9.40212	0
60.2242	0.00934627	-9.3429	0
60.2252	0.0093081	-9.29069	0
60.2262	0.0093081	-9.22512	0
60.2272	0.00926992	-9.16208	0
60.2282	0.0093081	-9.10287	0
60.2292	0.00928901	-9.04493	0
60.2304	0.00942262	-8.97235	0
60.2314	0.00936536	-8.91823	0
60.2324	0.00940353	-8.86411	0
60.2332	0.00938444	-8.81381	0
60.2342	0.00949897	-8.76097	0
60.2352	0.00936536	-8.7094	0
60.2362	0.00932718	-8.64955	0
60.2374	0.00942262	-8.59797	0
60.2384	0.00938444	-8.54131	0
60.2394	0.00940353	-8.48528	0
60.2406	0.00944171	-8.41843	0
60.242	0.00940353	-8.35603	0
60.243	0.00934627	-8.30127	0
60.244	0.00940353	-8.25034	0
60.2454	0.00940353	-8.18603	0
60.2466	0.00934627	-8.12873	0
60.2478	0.00936536	-8.07334	0
60.249	0.00936536	-8.01795	0
60.2502	0.00947988	-7.95937	0
60.2514	0.00936536	-7.90653	0
60.2528	0.0093081	-7.84731	0
60.254	0.00946079	-7.79192	0
60.2552	0.00942262	-7.73653	0
60.2566	0.00932718	-7.68114	0
60.2578	0.00934627	-7.62829	0
60.2592	0.00938444	-7.57481	0
60.2606	0.00934627	-7.50796	0
60.262	0.00934627	-7.45002	0
60.2634	0.00936536	-7.39271	0
60.265	0.00938444	-7.33478	0
60.2666	0.00938444	-7.27747	0
60.268	0.00932718	-7.22527	0
60.2694	0.00936536	-7.1686	0
60.271	0.00932718	-7.11575	0
60.2724	0.00944171	-7.05909	0
60.2738	0.00936536	-7.00752	0
60.2754	0.00932718	-6.95531	0
60.277	0.00934627	-6.89864	0
60.2786	0.00923175	-6.8407	0
60.2806	0.00923175	-6.78276	0
60.2822	0.00949897	-6.72737	0
60.2838	0.0093081	-6.66943	0
60.2856	0.00928901	-6.61595	0
60.2874	0.00936536	-6.5631	0
60.2894	0.00940353	-6.49753	0
60.2914	0.00934627	-6.43831	0
60.2932	0.00932718	-6.38547	0
60.295	0.00932718	-6.33007	0
60.297	0.00932718	-6.27723	0
60.2988	0.00936536	-6.22629	0
60.3008	0.00934627	-6.16772	0
60.3028	0.00942262	-6.11296	0
60.305	0.00934627	-6.05821	0
60.307	0.00947988	-6.00536	0
60.3092	0.0093081	-5.95443	0
60.3112	0.00934627	-5.90349	0
60.3132	0.00934627	-5.8481	0
60.3154	0.00938444	-5.79525	0
60.3176	0.00942262	-5.74304	0
60.3202	0.00932718	-5.68638	0
60.3222	0.00936536	-5.6329	0
60.3246	0.00938444	-5.5826	0
60.327	0.00932718	-5.52721	0
60.3298	0.00932718	-5.47245	0
60.3322	0.00936536	-5.42088	0
60.3346	0.00942262	-5.35785	0
60.338	0.00936536	-5.30373	0
60.3404	0.00934627	-5.25216	0
60.3432	0.0093081	-5.19867	0
60.3462	0.00932718	-5.14137	0
60.349	0.00938444	-5.08852	0
60.3516	0.00938444	-5.03695	0
60.3548	0.00936536	-4.98474	0
60.3578	0.00949897	-4.93445	0
60.3606	0.00940353	-4.88224	0
60.3642	0.00940353	-4.82812	0
60.3672	0.00936536	-4.77718	0
60.3706	0.00942262	-4.72243	0
60.3742	0.00936536	-4.67085	0
60.3774	0.0093081	-4.62056	0
60.381	0.00936536	-4.56707	0
60.3844	0.00942262	-4.51487	0
60.3884	0.00938444	-4.46457	0
60.3922	0.00936536	-4.41172	0
60.3956	0.00942262	-4.36142	0
60.4	0.00936536	-4.30921	0
60.4044	0.00936536	-4.25701	0
60.408	0.00932718	-4.20607	0
60.412	0.00934627	-4.15577	0
60.4166	0.00940353	-4.09974	0
60.4214	0.00940353	-4.04626	0
60.4264	0.00938444	-3.98705	0
60.4314	0.0093081	-3.9342	0
60.4368	0.00926992	-3.88136	0
60.4414	0.00940353	-3.83042	0
60.447	0.00932718	-3.77758	0
60.4526	0.00940353	-3.72537	0
60.458	0.00936536	-3.67316	0
60.464	0.0093081	-3.62031	0
60.47	0.0093081	-3.56747	0
60.5036	0.00934627	-3.31879	0
60.5106	0.00928901	-3.26872	0
60.518	0.00936536	-3.21808	0
60.5258	0.0093081	-3.16711	0
60.5336	0.00936536	-3.11628	0
60.5416	0.00926992	-3.06595	0
60.5502	0.00936536	-3.01486	0
60.559	0.00934627	-2.96441	0
60.5682	0.00932718	-2.91428	0
60.5776	0.0093081	-2.86376	0
60.5876	0.00932718	-2.8128	0
60.5978	0.00938444	-2.76183	0
60.6088	0.00934627	-2.71094	0
60.62	0.00938444	-2.66042	0
60.6316	0.00926992	-2.60971	0
60.644	0.00940353	-2.5583	0
60.6568	0.00938444	-2.50817	0
60.6698	0.00934627	-2.45765	0
60.6838	0.00934627	-2.40732	0
60.6982	0.0093081	-2.35725	0
60.7136	0.00940353	-2.30712	0
60.7296	0.00934627	-2.25641	0
60.7464	0.00940353	-2.20627	0
60.7642	0.00934627	-2.15531	0
60.783	0.00936536	-2.10492	0
60.8026	0.00936536	-2.05466	0
60.8232	0.0093081	-2.00427	0
60.8452	0.00926992	-1.9542	0
60.8684	0.00936536	-1.90419	0
60.893	0.00928901	-1.8538	0
60.9194	0.00938444	-1.80367	0
60.9468	0.00928901	-1.75366	0
60.9768	0.00934627	-1.7032	0
61.0088	0.00936536	-1.65282	0
61.043	0.00936536	-1.60268	0
61.079	0.00925083	-1.55261	0
61.1184	0.0093081	-1.50235	0
61.1608	0.00942262	-1.45177	0
61.2074	0.00928901	-1.40176	0
61.2568	0.0093081	-1.35169	0
61.3108	0.0093081	-1.30142	0
61.3704	0.00938444	-1.25046	0
61.4362	0.00947988	-1.20045	0
61.5068	0.00938444	-1.15032	0
61.5852	0.00934627	-1.10025	0
61.6732	0.00938444	-1.05024	0
61.7704	0.00926992	-1.00023	0
61.8784	0.00936536	-0.950095	0
62.003	0.00947988	-0.900087	0
62.1424	0.00936536	-0.85008	0
62.3018	0.00934627	-0.799881	0
62.488	0.00932718	-0.749873	0
62.7028	0.0093081	-0.699801	0
62.9556	0.00936536	-0.649793	0
63.2604	0.00940353	-0.599404	0
63.6308	0.0093081	-0.54895	0
64.0898	0.00936536	-0.498688	0
64.684	0.00925083	-0.448489	0
65.0528	0.00942262	-0.425196	0
65.0534	0.00936536	-0.424801	0
65.9556	0.00938444	-0.374727	0
67.2326	0.00932718	-0.324717	0
69.155	0.00946079	-0.274675	0
72.3608	0.0093081	-0.224601	0
78.2518	0.00938444	-0.174591	0
88.2518	0.00938444	-0.132358	0
98.2518	0.0093081	-0.109179	0
108.252	0.00940353	-0.0936952	0
118.252	0.0093081	-0.0825132	0
128.252	0.00938444	-0.073896	0
138.252	0.00942262	-0.066679	0
148.252	0.00934627	-0.0612439	0
158.252	0.00938444	-0.0559807	0
168.252	0.00942262	-0.0520794	0
178.252	0.00936536	-0.0480127	0
188.252	0.00932718	-0.0446775	0
198.252	0.00926992	-0.042011	0
208.252	0.00932718	-0.0395429	0
218.252	0.00944171	-0.0373644	0
228.252	0.00938444	-0.0353945	0
238.252	0.00932718	-0.0335977	0
248.252	0.00934627	-0.0321585	0
258.252	0.00926992	-0.0305882	0
268.252	0.00932718	-0.029296	0
278.252	0.00936536	-0.0281418	0
288.252	0.00936536	-0.0269933	0
298.252	0.00926992	-0.0260434	0
308.252	0.0093081	-0.0250254	0
318.252	0.00942262	-0.0241518	0
328.252	0.00932718	-0.023179	0
338.252	0.00928901	-0.022467	0
348.252	0.00936536	-0.0217563	0
358.252	0.0093081	-0.021101	0
368.252	0.00936536	-0.0204736	0
378.252	0.00936536	-0.0200079	0
383.464	0.00932718	-0.0196166	0
383.464	0.00936536	-0.0198405	0