Folder: MASTER-THESIS/EXPERIMENTAL/Data/Battery-cycling/JP-measurements/C-cell

Note: EXPERIMENTAL/Data/Battery-cycling/JP-measurements/C-cell/2024-04-19_JP-measurements_sample-A9-01_C-cell_Cu-Li-Cellgard2400-separator_25muL-LiFSI-in-DME_outside-glovebox_sigma-0.02_02_MB_C11.txt
time/s	Ewe/V	I/mA	error	
6.005299848293362E+001	2.8007736E+000	-2.5006020E-002	0

Note: EXPERIMENTAL/Data/Battery-cycling/JP-measurements/C-cell/2024-04-22_JP-measurements_sample-A9-02_C-cell_Cu-Li-Cellgard2400-separator_25muL-LiFSI-in-DME_outside-glovebox_sigma-0.02_01_OCV_C11.txt
time/s	<Ewe/V>	error	
9.999999747378752E+000	2.8084352E+000	0
1.999999949475750E+001	2.8084760E+000	0
2.999999924213625E+001	2.8086162E+000	0
3.999999898951501E+001	2.8087409E+000	0
4.999999873689376E+001	2.8088713E+000	0
5.999979848427756E+001	2.8089271E+000	0

Note: EXPERIMENTAL/Data/Battery-cycling/JP-measurements/C-cell/2024-04-23_JP-measurements_sample-A7-02_C-cell_Cu-Li-Cellgard2400-separator_25muL-LiFSI-in-DME_outside-glovebox_sigma-0.02_added-OCV-0.1s_01_OCV_C10.txt
time/s	<Ewe/V>	error	
9.999999747378752E+000	2.7843440E+000	0
1.999999949475750E+001	2.7850389E+000	0
2.999999924213625E+001	2.7856836E+000	0
3.999999898951501E+001	2.7862802E+000	0
4.999999873689376E+001	2.7868354E+000	0
5.999979848427756E+001	2.7873530E+000	0

Note: EXPERIMENTAL/Data/Battery-cycling/JP-measurements/C-cell/2024-04-23_JP-measurements_sample-A9-03_C-cell_Cu-Li-Cellgard2400-separator_25muL-LiFSI-in-DME_outside-glovebox_sigma-0.02_added-OCV-0.1_01_OCV_C10.txt
time/s	<Ewe/V>	error	
9.999999747378752E+000	2.1201367E+000	0
1.999999949475750E+001	2.1213403E+000	0
2.999999924213625E+001	2.1225126E+000	0
3.999999898951501E+001	2.1236546E+000	0
4.999999873689376E+001	2.1247802E+000	0
5.999979848427756E+001	2.1258738E+000	0

File: 2024-04-19_JP-measurements_sample-A8-01_C-cell_Cu-Li-Cellgard2400-separator_25muL-LiFSI-in-DME_outside-glovebox_sigma-0.02_02_MB_C10.txt
time/s	Ewe/V	I/mA	error
60.053	2.81461	-0.0250307	0
60.1736	0.00906931	-17.5586	0
60.1744	0.00912656	-17.396	0
60.1752	0.00920289	-17.2449	0
60.176	0.00916473	-17.0937	0
60.1768	0.00924106	-16.9349	0
60.1776	0.00924106	-16.794	0
60.1784	0.00926014	-16.6371	0
60.1792	0.00918381	-16.4955	0
60.18	0.00922198	-16.3584	0
60.1808	0.00918381	-16.2239	0
60.1816	0.00924106	-16.0829	0
60.1824	0.00916473	-15.9477	0
60.1832	0.00926014	-15.8151	0
60.184	0.00927923	-15.6792	0
60.1848	0.00929831	-15.5523	0
60.1856	0.00926014	-15.4369	0
60.1864	0.00918381	-15.3081	0
60.1872	0.00927923	-15.1799	0
60.188	0.0093174	-15.0651	0
60.1888	0.00924106	-14.9458	0
60.1896	0.00920289	-14.8202	0
60.1904	0.0093174	-14.706	0
60.1912	0.00933648	-14.5913	0
60.192	0.00920289	-14.4835	0
60.1928	0.00927923	-14.3649	0
60.1936	0.00918381	-14.2545	0
60.1948	0.00918381	-14.0996	0
60.1956	0.00926014	-13.9918	0
60.1966	0.00918381	-13.8668	0
60.1974	0.00927923	-13.7584	0
60.1982	0.00922198	-13.6563	0
60.1992	0.00922198	-13.5352	0
60.2002	0.00927923	-13.4076	0
60.2014	0.00918381	-13.2654	0
60.2026	0.00922198	-13.1225	0
60.2036	0.00922198	-13.0014	0
60.2046	0.00924106	-12.8917	0
60.2056	0.00929831	-12.775	0
60.2066	0.00933648	-12.6621	0
60.2078	0.00918381	-12.5377	0
60.209	0.00929831	-12.4115	0
60.2102	0.00933648	-12.282	0
60.2114	0.00920289	-12.1577	0
60.2126	0.00926014	-12.0422	0
60.2138	0.00910748	-11.9172	0
60.215	0.00929831	-11.8024	0
60.2162	0.00924106	-11.68	0
60.2174	0.00920289	-11.5646	0
60.2186	0.00933648	-11.4568	0
60.2198	0.00926014	-11.3433	0
60.221	0.00926014	-11.231	0
60.2224	0.00933648	-11.1067	0
60.2238	0.00920289	-10.997	0
60.225	0.00918381	-10.8892	0
60.2266	0.0093174	-10.7508	0
60.228	0.00922198	-10.6398	0
60.2294	0.00920289	-10.5289	0
60.2308	0.00939373	-10.4166	0
60.2322	0.00918381	-10.3018	0
60.2338	0.00914564	-10.1839	0
60.2352	0.00920289	-10.0812	0
60.2368	0.00922198	-9.96703	0
60.2384	0.00927923	-9.84777	0
60.2402	0.00918381	-9.72469	0
60.2418	0.00927923	-9.6067	0
60.2436	0.00927923	-9.48235	0
60.2454	0.00922198	-9.37074	0
60.2474	0.00922198	-9.24702	0
60.249	0.00926014	-9.14179	0
60.2508	0.00922198	-9.0321	0
60.2526	0.00935556	-8.91986	0
60.2548	0.00918381	-8.80379	0
60.257	0.00926014	-8.67688	0
60.259	0.00922198	-8.56209	0
60.261	0.00924106	-8.44921	0
60.2632	0.00926014	-8.33825	0
60.2654	0.00918381	-8.22345	0
60.2676	0.00914564	-8.11185	0
60.27	0.00926014	-7.99259	0
60.2726	0.00927923	-7.86377	0
60.2752	0.00924106	-7.74579	0
60.278	0.00935556	-7.62462	0
60.2804	0.00935556	-7.51365	0
60.283	0.00920289	-7.41098	0
60.2858	0.00922198	-7.29363	0
60.2886	0.00929831	-7.18586	0
60.2912	0.00926014	-7.07808	0
60.2942	0.00924106	-6.96456	0
60.2972	0.00922198	-6.85551	0
60.3002	0.00929831	-6.74518	0
60.3034	0.00918381	-6.63358	0
60.3068	0.00924106	-6.52708	0
60.3104	0.00933648	-6.41037	0
60.3138	0.00926014	-6.3045	0
60.3174	0.00924106	-6.198	0
60.3214	0.00908839	-6.08066	0
60.3252	0.00929831	-5.97097	0
60.3292	0.00924106	-5.86383	0
60.3334	0.00916473	-5.75159	0
60.338	0.00920289	-5.63807	0
60.3422	0.00918381	-5.53476	0
60.347	0.00929831	-5.42379	0
60.3518	0.00927923	-5.3192	0
60.3568	0.00922198	-5.20887	0
60.3622	0.00922198	-5.09472	0
60.3678	0.00920289	-4.98949	0
60.3734	0.00922198	-4.88427	0
60.3796	0.00924106	-4.76947	0
60.3864	0.00924106	-4.65914	0
60.3926	0.00926014	-4.55392	0
60.3992	0.00920289	-4.45252	0
60.4062	0.00918381	-4.34793	0
60.4138	0.00926014	-4.24525	0
60.4208	0.00920289	-4.14003	0
60.429	0.00929831	-4.03608	0
60.4382	0.00929831	-3.9283	0
60.4474	0.00920289	-3.82371	0
60.458	0.00926014	-3.71338	0
60.468	0.00924106	-3.60816	0
60.4734	0.00920289	-3.61317	0
60.5102	0.00924106	-3.28645	0
60.524	0.00914564	-3.18548	0
60.5388	0.00912656	-3.08502	0
60.5554	0.00922198	-2.98087	0
60.573	0.00918381	-2.87926	0
60.5918	0.00927923	-2.77753	0
60.6128	0.00920289	-2.67458	0
60.6354	0.00920289	-2.57349	0
60.6598	0.00927923	-2.47207	0
60.6866	0.00927923	-2.37123	0
60.7158	0.00922198	-2.27096	0
60.748	0.00935556	-2.16987	0
60.7836	0.00922198	-2.06928	0
60.8232	0.00920289	-1.96882	0
60.8674	0.00924106	-1.86772	0
60.9174	0.00924106	-1.76701	0
60.9748	0.00927923	-1.66668	0
61.0404	0.00927923	-1.56628	0
61.1166	0.00924106	-1.46582	0
61.2066	0.00920289	-1.36491	0
61.3134	0.00918381	-1.26414	0
61.445	0.00916473	-1.16374	0
61.6068	0.00918381	-1.06271	0
61.8116	0.0093174	-0.961992	0
62.0772	0.00924106	-0.861469	0
62.4362	0.00918381	-0.760754	0
62.9466	0.00922198	-0.659912	0
63.722	0.00918381	-0.559198	0
65.0072	0.00916473	-0.458993	0
67.5504	0.00929831	-0.358678	0
73.005	0.00929831	-0.258658	0
88.5512	0.0093174	-0.160669	0
108.551	0.00933648	-0.111601	0
128.551	0.00927923	-0.0847622	0
148.551	0.00918381	-0.0693975	0
168.551	0.00922198	-0.0588466	0
188.551	0.00914564	-0.0511165	0
208.551	0.00924106	-0.045112	0
228.551	0.00926014	-0.0407779	0
248.551	0.0093174	-0.0371741	0
268.551	0.00924106	-0.0337703	0
288.551	0.0093174	-0.0312201	0
308.551	0.00922198	-0.0288686	0
328.551	0.00918381	-0.0269002	0
348.551	0.0093174	-0.0250866	0
368.551	0.00920289	-0.0237886	0
388.551	0.00927923	-0.0221595	0
408.551	0.00918381	-0.0209538	0
428.551	0.00920289	-0.0197933	0
448.551	0.00924106	-0.0187009	0
468.551	0.00926014	-0.0178269	0
488.551	0.00922198	-0.0168771	0
508.551	0.00927923	-0.0161571	0
528.551	0.00926014	-0.015392	0
548.551	0.00926014	-0.014777	0
568.551	0.00922198	-0.0140233	0
588.551	0.00918381	-0.0135567	0
608.551	0.00933648	-0.0130366	0
628.551	0.00916473	-0.0124655	0
648.551	0.00926014	-0.0120473	0
668.551	0.00914564	-0.0115686	0
688.551	0.00922198	-0.0112083	0
708.551	0.00918381	-0.0108792	0
728.551	0.00920289	-0.0103871	0
748.551	0.00922198	-0.0101197	0
768.551	0.00922198	-0.00971166	0
788.551	0.00927923	-0.00943856	0
808.551	0.00920289	-0.00902096	0
828.551	0.00920289	-0.00875486	0
848.551	0.00920289	-0.00846203	0
868.551	0.00926014	-0.00828633	0
888.551	0.00920289	-0.00801451	0
908.551	0.00922198	-0.00775223	0
928.551	0.00927923	-0.00754343	0
948.551	0.00924106	-0.00725888	0
968.551	0.00918381	-0.00712774	0
988.551	0.00924106	-0.00700806	0
1008.55	0.00927923	-0.0067999	0
1028.55	0.00912656	-0.00663056	0
1048.55	0.00927923	-0.00641285	0
1068.55	0.00914564	-0.00629317	0
1088.55	0.00920289	-0.00610092	0
1108.55	0.00920289	-0.00587557	0
1128.55	0.00929831	-0.00577881	0
1148.55	0.00924106	-0.0056413	0
1168.55	0.00933648	-0.00541213	0
1188.55	0.00929831	-0.00541659	0
1208.55	0.00922198	-0.00520269	0
1228.55	0.00922198	-0.0051594	0
1248.55	0.00924106	-0.00503018	0
1268.55	0.00922198	-0.00494933	0
1288.55	0.00920289	-0.00486084	0
1308.55	0.00926014	-0.00497798	0
1328.55	0.00920289	-0.00468005	0
1348.55	0.00927923	-0.00454891	0
1368.55	0.00916473	-0.00451371	0
1388.55	0.00933648	-0.00441482	0
1408.55	0.00916473	-0.00433657	0
1428.55	0.00922198	-0.00424659	0
1448.55	0.00926014	-0.00415764	0
1468.55	0.00935556	-0.00408569	0
1488.55	0.00924106	-0.00401412	0
1504.55	0.00918381	-0.00391026	0
1504.55	0.00922198	-0.00392058	0

File: 2024-04-19_JP-measurements_sample-A8-01_C-cell_Cu-Li-Cellgard2400-separator_25muL-LiFSI-in-DME_outside-glovebox_sigma-0.02_03_CP_C10.txt
time/s	Ewe/V	I/mA	error
1504.55	0.00788238	-0.0242163	1
1504.57	0.00564961	-0.0242159	0
1504.61	0.00356951	-0.024217	0
1504.65	0.0013749	-0.0242165	0
1504.69	-0.000705202	-0.0242169	0
1504.73	-0.00288072	-0.0242161	0
1504.78	-0.00494174	-0.0242165	0
1504.83	-0.00698368	-0.024216	0
1504.88	-0.00902562	-0.0242158	0
1504.94	-0.0110676	-0.0242156	0
1505	-0.0131095	-0.0242166	0
1505.06	-0.0151705	-0.0242162	0
1505.13	-0.0172888	-0.024216	0
1505.19	-0.0193689	-0.024216	0
1505.27	-0.0214299	-0.0242161	0
1505.34	-0.0234528	-0.0242158	0
1505.42	-0.0255329	-0.0242157	0
1505.5	-0.027613	-0.0242149	0
1505.58	-0.0297121	-0.0242161	0
1505.67	-0.031735	-0.0242162	0
1505.76	-0.0337579	-0.0242159	0
1505.86	-0.0357807	-0.0242154	0
1505.96	-0.0378417	-0.0242163	0
1506.06	-0.0398646	-0.0242158	0
1506.18	-0.0419447	-0.0242162	0
1506.29	-0.0440248	-0.0242156	0
1506.42	-0.0460667	-0.0242159	0
1506.55	-0.0481087	-0.0242163	0
1506.69	-0.0501315	-0.0242161	0
1506.84	-0.0523643	-0.0242159	0
1507.01	-0.0545016	-0.0242161	0
1507.18	-0.0565245	-0.0242159	0
1507.37	-0.0585664	-0.0242163	0
1507.57	-0.0606274	-0.0242156	0
1507.79	-0.0626503	-0.0242157	0
1508.03	-0.0647304	-0.0242161	0
1508.31	-0.0667533	-0.0242161	0
1508.63	-0.0687952	-0.0242159	0
1509.02	-0.0708371	-0.024216	0
1509.62	-0.0728791	-0.024216	0
1511.45	-0.0708562	-0.0242158	0
1511.96	-0.0687952	-0.0242157	0
1512.42	-0.0667533	-0.0242161	0
1512.88	-0.0647304	-0.0242161	0
1513.36	-0.0627076	-0.024216	0
1513.89	-0.0606656	-0.0242158	0
1514.52	-0.0586428	-0.0242161	0
1515.25	-0.0565817	-0.0242161	0
1516.21	-0.0545398	-0.024216	0
1517.42	-0.0524979	-0.0242159	0
1519.09	-0.050475	-0.0242156	0
1521.39	-0.0484522	-0.0242154	0
1524.94	-0.0463721	-0.024216	0
1530.13	-0.0443492	-0.0242166	0
1537.6	-0.0423073	-0.0242163	0
1547.48	-0.0407043	-0.024216	0
1557.4	-0.0391394	-0.0242163	0
1567.4	-0.0380516	-0.024216	0
1577.4	-0.0370975	-0.0242163	0
1587.4	-0.036315	-0.0242163	0
1597.4	-0.0356853	-0.0242163	0
1607.4	-0.0348265	-0.0242159	0
1617.4	-0.0342731	-0.0242159	0
1627.4	-0.0336243	-0.0242159	0
1637.4	-0.0330899	-0.024216	0
1647.4	-0.0327464	-0.0242159	0
1657.4	-0.0322312	-0.0242165	0
1667.4	-0.0317159	-0.0242167	0
1677.4	-0.0313342	-0.0242152	0
1687.4	-0.0309144	-0.0242158	0
1697.4	-0.0306282	-0.0242161	0
1707.4	-0.0302083	-0.0242158	0
1717.4	-0.0299984	-0.0242161	0
1727.4	-0.0295976	-0.0242165	0
1737.4	-0.0292732	-0.0242158	0
1747.4	-0.0291206	-0.0242162	0
1757.4	-0.0289297	-0.0242165	0
1767.4	-0.0284908	-0.0242156	0
1777.4	-0.0282809	-0.0242161	0
1787.4	-0.0282046	-0.0242163	0
1797.4	-0.0279183	-0.0242164	0
1807.4	-0.0276702	-0.0242161	0
1817.4	-0.0274603	-0.0242163	0
1827.4	-0.0272695	-0.0242165	0
1837.4	-0.0269641	-0.024216	0
1847.4	-0.0269832	-0.0242161	0
1857.4	-0.0267733	-0.024216	0
1867.4	-0.0265061	-0.0242158	0
1877.4	-0.0263916	-0.0242158	0
1887.4	-0.0262199	-0.024216	0
1897.4	-0.0261244	-0.0242165	0
1907.4	-0.0259527	-0.0242165	0
1917.4	-0.0257809	-0.024216	0
1927.4	-0.0257619	-0.0242159	0
1937.4	-0.0255901	-0.0242156	0
1947.4	-0.0254756	-0.0242159	0
1957.4	-0.0253611	-0.0242169	0
1967.4	-0.0251894	-0.0242161	0
1977.4	-0.025113	-0.0242158	0
1987.4	-0.0250558	-0.0242161	0
1997.4	-0.0249222	-0.0242158	0
2007.4	-0.0247886	-0.0242161	0
2017.4	-0.0247314	-0.0242159	0
2027.4	-0.0245787	-0.0242159	0
2037.4	-0.0243878	-0.0242161	0
2047.4	-0.024426	-0.0242165	0
2057.4	-0.0242924	-0.0242161	0
2067.4	-0.0242733	-0.0242159	0
2077.4	-0.024197	-0.0242161	0
2087.4	-0.0240825	-0.024216	0
2097.4	-0.0240062	-0.0242159	0
2107.4	-0.0240062	-0.0242163	0
2117.4	-0.0238726	-0.0242164	0
2127.4	-0.0236818	-0.0242163	0
2137.4	-0.023739	-0.0242162	0
2147.4	-0.0236818	-0.0242163	0
2157.4	-0.0235482	-0.0242158	0
2167.4	-0.0235482	-0.0242165	0
2177.4	-0.0233573	-0.024216	0
2187.4	-0.0233955	-0.0242165	0
2197.4	-0.0233383	-0.0242166	0
2207.4	-0.0233001	-0.024216	0
2217.4	-0.0231856	-0.0242164	0
2227.4	-0.0231474	-0.0242163	0
2237.4	-0.0230329	-0.0242156	0
2247.4	-0.0229757	-0.0242159	0
2257.4	-0.0230329	-0.024216	0
2267.4	-0.0228802	-0.0242164	0
2277.4	-0.0229757	-0.0242168	0
2287.4	-0.0228039	-0.0242157	0
2297.4	-0.0225749	-0.0242157	0
2307.4	-0.0226894	-0.0242162	0
2317.4	-0.022594	-0.0242169	0
2327.4	-0.0226322	-0.0242163	0
2337.4	-0.0225367	-0.0242163	0
2347.4	-0.0224986	-0.0242163	0
2357.4	-0.0225749	-0.0242164	0
2367.4	-0.0225177	-0.0242159	0
2377.4	-0.0223459	-0.0242162	0
2387.4	-0.0224413	-0.0242166	0
2397.4	-0.022365	-0.0242158	0
2407.4	-0.0223459	-0.0242154	0
2417.4	-0.0220978	-0.0242161	0
2427.4	-0.0220787	-0.0242158	0
2437.4	-0.0221169	-0.0242156	0
2447.4	-0.0220978	-0.0242157	0
2457.4	-0.0220978	-0.0242156	0
2467.4	-0.022136	-0.024216	0
2477.4	-0.0220406	-0.0242156	0
2487.4	-0.0218879	-0.0242165	0
2497.4	-0.0219261	-0.0242165	0
2507.4	-0.0218879	-0.0242161	0
2517.4	-0.0218497	-0.0242163	0
2527.4	-0.0219261	-0.0242158	0
2537.4	-0.0218116	-0.0242161	0
2547.4	-0.0218116	-0.0242159	0
2557.4	-0.0217925	-0.0242163	0
2567.4	-0.0217352	-0.0242163	0
2577.4	-0.021678	-0.0242161	0
2587.4	-0.0217352	-0.024216	0
2597.4	-0.0217352	-0.0242164	0
2607.4	-0.0217162	-0.0242161	0
2617.4	-0.0215253	-0.0242157	0
2627.4	-0.0215062	-0.0242159	0
2637.4	-0.0214872	-0.0242154	0
2647.4	-0.0215444	-0.0242167	0
2657.4	-0.0214872	-0.0242154	0
2667.4	-0.0215253	-0.0242159	0
2677.4	-0.0213917	-0.0242163	0
2687.4	-0.021449	-0.0242161	0
2697.4	-0.0214872	-0.0242156	0
2707.4	-0.0214681	-0.0242157	0
2717.4	-0.021449	-0.0242166	0
2727.4	-0.0212772	-0.0242156	0
2737.4	-0.0214108	-0.0242162	0
2747.4	-0.0213917	-0.0242161	0
2757.4	-0.0213536	-0.0242166	0
2767.4	-0.0212391	-0.0242166	0
2777.4	-0.0213917	-0.0242161	0
2787.4	-0.0213345	-0.0242161	0
2797.4	-0.0212391	-0.0242164	0
2807.4	-0.0212582	-0.0242167	0
2817.4	-0.0211436	-0.024216	0
2827.4	-0.0212391	-0.0242156	0
2837.4	-0.02122	-0.0242158	0
2847.4	-0.0210291	-0.0242161	0
2857.4	-0.0211627	-0.0242162	0
2867.4	-0.0211627	-0.024216	0
2877.4	-0.0211055	-0.0242155	0
2887.4	-0.0211627	-0.0242163	0
2897.4	-0.0210101	-0.0242164	0
2907.4	-0.0210101	-0.0242158	0
2917.4	-0.0210864	-0.0242162	0
2927.4	-0.0208956	-0.0242163	0
2937.4	-0.0209146	-0.0242159	0
2947.4	-0.0210673	-0.0242161	0
2957.4	-0.0210291	-0.0242163	0
2967.4	-0.0208574	-0.0242161	0
2977.4	-0.0209337	-0.0242161	0
2987.4	-0.0209528	-0.024216	0
2997.4	-0.0210673	-0.0242158	0
3007.4	-0.0209146	-0.0242164	0
3017.4	-0.0208001	-0.0242161	0
3027.4	-0.0208765	-0.024216	0
3037.4	-0.0209337	-0.0242158	0
3047.4	-0.0207811	-0.0242163	0
3057.4	-0.0208383	-0.0242165	0
3067.4	-0.0208383	-0.0242161	0
3077.4	-0.0208192	-0.0242162	0
3087.4	-0.0208192	-0.0242161	0
3097.4	-0.0209146	-0.0242163	0
3107.4	-0.0206856	-0.0242168	0
3117.4	-0.0208574	-0.0242159	0
3127.4	-0.0207429	-0.0242161	0
3137.4	-0.0207238	-0.0242161	0
3147.4	-0.0206666	-0.024216	0
3157.4	-0.0207047	-0.0242156	0
3167.4	-0.0207047	-0.0242164	0
3177.4	-0.0206475	-0.0242161	0
3187.4	-0.0206856	-0.0242165	0
3197.4	-0.0206475	-0.0242164	0
3207.4	-0.0206856	-0.0242157	0
3217.4	-0.0207238	-0.0242158	0
3227.4	-0.0204948	-0.0242161	0
3237.4	-0.020533	-0.024216	0
3247.4	-0.0206284	-0.0242161	0
3257.4	-0.0206093	-0.0242158	0
3267.4	-0.0205902	-0.0242171	0
3277.4	-0.0205711	-0.0242156	0
3287.4	-0.0204376	-0.0242157	0
3297.4	-0.0204566	-0.0242164	0
3304.55	-0.0206093	-0.0242161	0

File: 2024-04-22_JP-measurements_sample-A7-01_C-cell_Cu-Li-Cellgard2400-separator_25muL-LiFSI-in-DME_outside-glovebox_sigma-0.02_03_CP_C10.txt
time/s	Ewe/V	I/mA	error
10787.9	0.00732896	-0.0195956	0
10788.1	-0.00608675	-0.0195952	0
10788.4	-0.0194452	-0.0195952	0
10788.7	-0.0327464	-0.0195956	0
10789.1	-0.0460095	-0.0195957	0
10789.6	-0.0593489	-0.0195952	0
10790.3	-0.0729172	-0.0195952	0
10791.4	-0.0863139	-0.0195954	0
10793.8	-0.0791003	-0.0195961	0
10795.1	-0.0658182	-0.0195955	0
10797.7	-0.052536	-0.019596	0
10815.3	-0.0393112	-0.0195956	0
10880.2	-0.0329754	-0.0195956	0
10945.2	-0.029903	-0.0195956	0
11010.2	-0.0277847	-0.0195956	0
11075.2	-0.0265252	-0.0195954	0
11140.2	-0.0253802	-0.0195954	0
11205.2	-0.0244833	-0.0195961	0
11270.2	-0.0239489	-0.0195952	0
11335.2	-0.0234718	-0.0195951	0
11400.2	-0.023052	-0.0195958	0
11465.2	-0.0225749	-0.0195954	0
11530.2	-0.0223268	-0.0195954	0
11595.2	-0.0220787	-0.0195955	0
11660.2	-0.0218879	-0.0195956	0
11725.2	-0.0215444	-0.0195956	0
11790.2	-0.0212772	-0.0195955	0
11855.2	-0.0210673	-0.0195957	0
11920.2	-0.0209337	-0.0195958	0
11985.2	-0.0208956	-0.0195953	0
12050.2	-0.0206093	-0.0195955	0
12115.2	-0.0204566	-0.0195956	0
12180.2	-0.0203231	-0.0195955	0
12245.2	-0.0203421	-0.0195952	0
12310.2	-0.0201322	-0.0195954	0
12375.2	-0.0199986	-0.0195962	0
12440.2	-0.0199414	-0.0195956	0
12505.2	-0.0196933	-0.0195956	0
12570.2	-0.0195025	-0.0195956	0
12635.2	-0.019388	-0.0195956	0
12700.2	-0.019388	-0.0195955	0
12765.2	-0.0194261	-0.0195955	0
12830.2	-0.0192162	-0.0195956	0
12895.2	-0.0192353	-0.0195964	0
12960.2	-0.0192353	-0.0195955	0
13025.2	-0.0190254	-0.0195955	0
13090.2	-0.0189109	-0.0195954	0
13155.2	-0.0188155	-0.0195952	0
13220.2	-0.0188918	-0.0195956	0
13285.2	-0.01872	-0.0195958	0
13350.2	-0.0187582	-0.0195949	0
13415.2	-0.0186628	-0.0195956	0
13480.2	-0.0185674	-0.0195949	0
13545.2	-0.018491	-0.0195954	0
13610.2	-0.0183956	-0.0195953	0
13675.2	-0.0183002	-0.0195955	0
13740.2	-0.0183002	-0.0195956	0
13805.2	-0.0181475	-0.0195955	0
13870.2	-0.0180712	-0.0195958	0
13935.2	-0.0179567	-0.0195956	0
14000.2	-0.0179949	-0.0195955	0
14065.2	-0.0178422	-0.0195956	0
14130.2	-0.0176132	-0.0195955	0
14195.2	-0.0177277	-0.0195956	0
14260.2	-0.0176895	-0.0195954	0
14325.2	-0.0175369	-0.0195959	0
14390.2	-0.0174796	-0.0195954	0
14455.2	-0.0174033	-0.019595	0
14520.2	-0.0173269	-0.0195959	0
14585.2	-0.0173651	-0.0195949	0
14650.2	-0.0172888	-0.0195964	0
14715.2	-0.0171934	-0.0195956	0
14780.2	-0.0172888	-0.0195961	0
14845.2	-0.0174033	-0.0195953	0
14910.2	-0.0174033	-0.0195953	0
14975.2	-0.0172697	-0.0195967	0
15040.2	-0.0173269	-0.0195956	0
15105.2	-0.0172315	-0.0195957	0
15170.2	-0.0173269	-0.0195959	0
15235.2	-0.017346	-0.0195961	0
15300.2	-0.017346	-0.0195959	0
15365.2	-0.0172697	-0.0195959	0
15430.2	-0.0172888	-0.0195947	0
15495.2	-0.0172506	-0.0195952	0
15560.2	-0.0171743	-0.0195957	0
15625.2	-0.0171361	-0.019596	0
15690.2	-0.0171361	-0.0195957	0
15755.2	-0.017117	-0.0195958	0
15820.2	-0.0171552	-0.0195963	0
15885.2	-0.0170598	-0.019596	0
15950.2	-0.0170979	-0.019595	0
16015.2	-0.0170598	-0.0195963	0
16080.2	-0.0169071	-0.0195958	0
16145.2	-0.0170025	-0.0195959	0
16210.2	-0.0168499	-0.019596	0
16275.2	-0.0169834	-0.0195956	0
16340.2	-0.016888	-0.0195951	0
16405.2	-0.0168689	-0.0195952	0
16470.2	-0.0169453	-0.0195952	0
16535.2	-0.0169453	-0.0195955	0
16600.2	-0.0167926	-0.0195955	0
16665.2	-0.0167354	-0.0195958	0
16730.2	-0.0166972	-0.0195956	0
16795.2	-0.0167354	-0.0195958	0
16860.2	-0.0167354	-0.0195958	0
16925.2	-0.0166781	-0.0195957	0
16990.2	-0.0165827	-0.0195954	0
17055.2	-0.0165445	-0.0195961	0
17120.2	-0.0166209	-0.0195958	0
17185.2	-0.0165827	-0.0195954	0
17250.2	-0.0165064	-0.0195957	0
17315.2	-0.0164873	-0.0195956	0
17380.2	-0.0165064	-0.0195956	0
17445.2	-0.0165254	-0.0195958	0
17510.2	-0.0163728	-0.0195956	0
17575.2	-0.01643	-0.0195963	0
17640.2	-0.0163537	-0.019596	0
17705.2	-0.0163346	-0.0195952	0
17770.2	-0.0163728	-0.0195956	0
17835.2	-0.01643	-0.0195955	0
17900.2	-0.0163346	-0.0195958	0
17965.2	-0.0164491	-0.0195952	0
18030.2	-0.016201	-0.0195961	0
18095.2	-0.016201	-0.0195958	0
18160.2	-0.0163728	-0.0195953	0
18225.2	-0.0163537	-0.019596	0
18290.2	-0.0162774	-0.0195956	0
18355.2	-0.0162392	-0.0195959	0
18420.2	-0.0161247	-0.0195961	0
18485.2	-0.016201	-0.0195953	0
18550.2	-0.0161819	-0.0195952	0
18615.2	-0.0161056	-0.0195958	0
18680.2	-0.0160102	-0.0195954	0
18745.2	-0.0160102	-0.019596	0
18810.2	-0.0158766	-0.019596	0
18875.2	-0.0160293	-0.0195956	0
18940.2	-0.0158384	-0.0195956	0
19005.2	-0.0157621	-0.0195955	0
19070.2	-0.0157621	-0.0195955	0
19135.2	-0.0156476	-0.0195961	0
19200.2	-0.0157048	-0.0195958	0
19265.2	-0.0156858	-0.0195958	0
19330.2	-0.0155903	-0.0195956	0
19395.2	-0.0157239	-0.0195954	0
19460.2	-0.0155903	-0.0195957	0
19525.2	-0.0157048	-0.0195954	0
19590.2	-0.0156094	-0.0195958	0
19655.2	-0.0156476	-0.0195962	0
19720.2	-0.0157812	-0.0195959	0
19785.2	-0.0155903	-0.0195956	0
19850.2	-0.0155522	-0.0195959	0
19915.2	-0.015514	-0.0195957	0
19980.2	-0.015514	-0.0195954	0
20045.2	-0.015514	-0.0195956	0
20110.2	-0.0154949	-0.0195952	0
20175.2	-0.0153804	-0.0195955	0
20240.2	-0.0153232	-0.0195959	0
20305.2	-0.0154186	-0.0195954	0
20370.2	-0.0153995	-0.0195958	0
20435.2	-0.0154758	-0.0195956	0
20500.2	-0.0154568	-0.0195954	0
20565.2	-0.0155331	-0.0195954	0
20630.2	-0.0155903	-0.0195959	0
20695.2	-0.0156094	-0.0195959	0
20760.2	-0.0158384	-0.0195955	0
20825.2	-0.0157048	-0.0195959	0
20890.2	-0.0156858	-0.0195956	0
20955.2	-0.0158193	-0.0195961	0
21020.2	-0.0158575	-0.0195961	0
21085.2	-0.0158193	-0.019596	0
21150.2	-0.0158003	-0.019596	0
21215.2	-0.0157621	-0.019596	0
21280.2	-0.0159148	-0.0195954	0
21345.2	-0.0158766	-0.0195958	0
21410.2	-0.0158575	-0.0195958	0
21475.2	-0.0157812	-0.0195956	0
21540.2	-0.0158003	-0.0195956	0
21605.2	-0.0158193	-0.0195949	0
21670.2	-0.015972	-0.0195954	0
21735.2	-0.015972	-0.019596	0
21800.2	-0.0158575	-0.0195952	0
21865.2	-0.0159529	-0.0195958	0
21930.2	-0.0159338	-0.0195954	0
21995.2	-0.0160293	-0.0195952	0
22060.2	-0.0160102	-0.0195955	0
22125.2	-0.0159529	-0.0195955	0
22190.2	-0.0158766	-0.0195958	0
22255.2	-0.0159911	-0.0195952	0
22320.2	-0.0158957	-0.0195959	0
22385.2	-0.0160293	-0.019596	0
22450.2	-0.0160293	-0.0195952	0
22515.2	-0.0159911	-0.0195958	0
22580.2	-0.0158575	-0.019595	0
22645.2	-0.0159529	-0.0195961	0
22710.2	-0.0158384	-0.0195958	0
22775.2	-0.0159529	-0.0195956	0
22840.2	-0.0159148	-0.0195959	0
22905.2	-0.0159338	-0.0195954	0
22970.2	-0.0157812	-0.0195956	0
23035.2	-0.0158384	-0.019596	0
23100.2	-0.0158957	-0.0195952	0
23165.2	-0.0159338	-0.0195959	0
23230.2	-0.0159338	-0.0195951	0
23295.2	-0.0157812	-0.0195956	0
23360.2	-0.0157239	-0.019596	0
23425.2	-0.0158193	-0.0195951	0
23490.2	-0.0157621	-0.0195954	0
23555.2	-0.0156858	-0.0195955	0
23620.2	-0.0157048	-0.0195956	0
23685.2	-0.0158193	-0.0195954	0
23750.2	-0.0157621	-0.0195958	0
23815.2	-0.0158193	-0.0195951	0
23880.2	-0.0157621	-0.0195958	0
23945.2	-0.0158575	-0.0195958	0
24010.2	-0.0158384	-0.0195956	0
24075.2	-0.0158575	-0.0195955	0
24140.2	-0.0158003	-0.0195954	0
24205.2	-0.015743	-0.0195956	0
24270.2	-0.0157621	-0.0195949	0
24335.2	-0.0156858	-0.0195956	0
24400.2	-0.0158766	-0.0195954	0
24465.2	-0.0156476	-0.0195958	0
24530.2	-0.0157621	-0.0195955	0
24595.2	-0.0157621	-0.0195955	0
24660.2	-0.0157621	-0.0195954	0
24725.2	-0.0156667	-0.0195959	0
24790.2	-0.0156858	-0.0195952	0
24855.2	-0.0157239	-0.0195959	0
24920.2	-0.0156094	-0.0195959	0
24985.2	-0.0156667	-0.0195956	0
25050.2	-0.0157048	-0.0195951	0
25115.2	-0.0157048	-0.0195954	0
25180.2	-0.0155713	-0.0195959	0
25245.2	-0.0157621	-0.0195955	0
25310.2	-0.0156858	-0.0195956	0
25375.2	-0.0158575	-0.0195959	0
25440.2	-0.0156094	-0.0195959	0
25505.2	-0.0157621	-0.019596	0
25570.2	-0.0156667	-0.0195961	0
25635.2	-0.0156285	-0.0195955	0
25700.2	-0.0155713	-0.0195961	0
25765.2	-0.0156476	-0.0195954	0
25830.2	-0.0156476	-0.0195951	0
25895.2	-0.015743	-0.0195959	0
25960.2	-0.0156476	-0.0195965	0
26025.2	-0.0155713	-0.0195959	0
26090.2	-0.0156667	-0.0195959	0
26155.2	-0.0157048	-0.0195958	0
26220.2	-0.0156094	-0.0195955	0
26285.2	-0.0156667	-0.0195958	0
26350.2	-0.0156858	-0.0195957	0
26415.2	-0.0156476	-0.0195959	0
26480.2	-0.0156285	-0.0195955	0
26545.2	-0.0156094	-0.0195954	0
26610.2	-0.0156285	-0.0195955	0
26675.2	-0.0156667	-0.0195963	0
26740.2	-0.0156094	-0.0195954	0
26805.2	-0.0156858	-0.0195951	0
26870.2	-0.0156094	-0.0195952	0
26935.2	-0.0157048	-0.0195956	0
27000.2	-0.0156667	-0.0195954	0
27065.2	-0.0156476	-0.0195954	0
27130.2	-0.0156858	-0.0195954	0
27195.2	-0.0156476	-0.0195956	0
27260.2	-0.0155522	-0.0195957	0
27325.2	-0.0156667	-0.0195959	0
27390.2	-0.0156667	-0.0195956	0
27455.2	-0.0156285	-0.0195959	0
27520.2	-0.0156858	-0.0195956	0
27585.2	-0.0158003	-0.0195952	0
27650.2	-0.0156094	-0.0195953	0
27715.2	-0.0156476	-0.0195958	0
27780.2	-0.0156858	-0.0195961	0
27845.2	-0.0156667	-0.0195956	0
27910.2	-0.0157239	-0.0195955	0
27975.2	-0.0157048	-0.0195956	0
28040.2	-0.0156094	-0.0195957	0
28105.2	-0.0156667	-0.0195956	0
28170.2	-0.0156858	-0.0195957	0
28235.2	-0.0154949	-0.0195954	0
28300.2	-0.0155713	-0.0195955	0
28365.2	-0.0157048	-0.019596	0
28430.2	-0.0156094	-0.0195947	0
28495.2	-0.0155713	-0.0195944	0
28560.2	-0.0157239	-0.0195956	0
28625.2	-0.0155713	-0.0195955	0
28690.2	-0.0156858	-0.0195954	0
28755.2	-0.0157048	-0.0195954	0
28787.9	-0.0156094	-0.0195956	0