Folder: MASTER-THESIS/EXPERIMENTAL/Data/Battery-cycling/JP-measurements/T-cell (part 2)

File: 2024-04-22_JP-A2_T-cell_Li-Cu_1-mm-PP-spacer_75muL-4MLiFSI-DME_inside-glovebox_03_CP_C10.txt
time/s	Ewe/V	I/mA	error
43222.3	-0.00056976	-0.0240376	1
43222.3	-0.00280341	-0.0240373	0
43222.3	-0.00492251	-0.0240367	0
43222.3	-0.00704161	-0.0240376	0
43222.3	-0.00917981	-0.0240381	0
43222.3	-0.0112607	-0.0240373	0
43222.4	-0.0132844	-0.0240378	0
43222.4	-0.0154035	-0.0240371	0
43222.4	-0.0177708	-0.0240372	0
43222.4	-0.0198517	-0.0240379	0
43222.4	-0.0219708	-0.0240375	0
43222.4	-0.0241281	-0.0240376	0
43222.5	-0.0261899	-0.0240379	0
43222.5	-0.0282135	-0.0240373	0
43222.5	-0.0302563	-0.0240373	0
43222.5	-0.032299	-0.0240376	0
43222.5	-0.0343609	-0.0240379	0
43222.6	-0.0365181	-0.0240378	0
43222.6	-0.03858	-0.0240375	0
43222.6	-0.0406991	-0.0240372	0
43222.7	-0.0428182	-0.0240373	0
43222.7	-0.0449564	-0.0240373	0
43222.7	-0.0471136	-0.0240378	0
43222.8	-0.0491373	-0.0240371	0
43222.8	-0.05118	-0.0240376	0
43222.8	-0.0532419	-0.0240376	0
43222.9	-0.0553228	-0.0240374	0
43222.9	-0.0574228	-0.0240379	0
43222.9	-0.059561	-0.0240379	0
43223	-0.0616419	-0.0240377	0
43223	-0.0636846	-0.024037	0
43223.1	-0.0657274	-0.0240378	0
43223.1	-0.067751	-0.0240372	0
43223.2	-0.0697747	-0.0240376	0
43223.2	-0.071932	-0.0240377	0
43223.3	-0.0739556	-0.0240376	0
43223.4	-0.0760556	-0.0240373	0
43223.4	-0.0781175	-0.024037	0
43223.5	-0.0801793	-0.0240373	0
43223.6	-0.0822602	-0.0240375	0
43223.6	-0.0843602	-0.0240378	0
43223.7	-0.0863839	-0.0240374	0
43223.8	-0.0884839	-0.0240368	0
43223.9	-0.0905075	-0.0240378	0
43224	-0.0926075	-0.0240377	0
43224.1	-0.0946312	-0.0240373	0
43224.2	-0.0966548	-0.0240373	0
43224.3	-0.0986976	-0.0240375	0
43224.4	-0.100778	-0.0240373	0
43224.9	-0.100778	-0.0240369	0
43225.1	-0.0987167	-0.0240373	0
43225.2	-0.0966357	-0.0240374	0
43225.3	-0.0945166	-0.0240376	0
43225.4	-0.0924357	-0.0240373	0
43225.5	-0.0904121	-0.024037	0
43225.5	-0.0883884	-0.0240376	0
43225.6	-0.0863457	-0.024037	0
43225.7	-0.0842839	-0.0240377	0
43225.8	-0.0822029	-0.0240378	0
43225.9	-0.0801602	-0.0240373	0
43226	-0.0780984	-0.0240374	0
43226.1	-0.0760365	-0.0240373	0
43226.2	-0.0739365	-0.0240375	0
43226.4	-0.0718556	-0.0240373	0
43226.5	-0.0697556	-0.024037	0
43226.7	-0.0677129	-0.0240371	0
43226.9	-0.0656701	-0.0240375	0
43227.1	-0.0636274	-0.0240374	0
43227.3	-0.0616037	-0.0240371	0
43227.7	-0.0594655	-0.0240372	0
43228.1	-0.0574419	-0.0240379	0
43228.6	-0.0553992	-0.0240376	0
43229.3	-0.0533755	-0.0240372	0
43230.2	-0.0513137	-0.024037	0
43231.6	-0.0492709	-0.0240371	0
43233.6	-0.0472091	-0.0240374	0
43237.1	-0.0451664	-0.0240376	0
43241.9	-0.0431427	-0.0240377	0
43249.7	-0.0411	-0.024037	0
43258.6	-0.0392863	-0.0240377	0
43268.6	-0.0381027	-0.0240376	0
43278.5	-0.0366518	-0.0240369	0
43288.5	-0.0355254	-0.0240372	0
43298.5	-0.0343418	-0.0240377	0
43308.5	-0.0333108	-0.0240376	0
43318.5	-0.0324327	-0.0240378	0
43328.5	-0.0318027	-0.0240378	0
43338.5	-0.0311345	-0.0240368	0
43348.5	-0.0307336	-0.0240382	0
43358.5	-0.0303136	-0.0240376	0
43368.5	-0.0298936	-0.0240376	0
43378.5	-0.0296263	-0.024037	0
43388.5	-0.0293972	-0.0240375	0
43398.5	-0.0291872	-0.0240369	0
43408.5	-0.0290154	-0.0240371	0
43418.5	-0.0287863	-0.0240374	0
43428.5	-0.0286336	-0.0240376	0
43438.5	-0.028519	-0.0240375	0
43448.5	-0.028309	-0.0240378	0
43458.5	-0.0283854	-0.024037	0
43468.5	-0.0283281	-0.0240373	0
43478.5	-0.0281754	-0.0240372	0
43488.5	-0.0279845	-0.0240376	0
43498.5	-0.0279081	-0.0240374	0
43508.5	-0.0280226	-0.0240374	0
43518.5	-0.0279081	-0.0240375	0
43528.5	-0.0276408	-0.0240369	0
43538.5	-0.0277554	-0.0240373	0
43548.5	-0.0274881	-0.0240374	0
43558.5	-0.0275072	-0.0240373	0
43568.5	-0.0273545	-0.0240376	0
43578.5	-0.0274499	-0.0240371	0
43588.5	-0.0273926	-0.0240378	0
43598.5	-0.0274308	-0.0240373	0
43608.5	-0.0272781	-0.0240376	0
43618.5	-0.0272972	-0.0240376	0
43628.5	-0.0272399	-0.0240374	0
43638.5	-0.0271445	-0.0240374	0
43648.5	-0.0270299	-0.0240373	0
43658.5	-0.0270872	-0.0240375	0
43668.5	-0.0271063	-0.0240375	0
43678.5	-0.0269154	-0.0240372	0
43688.5	-0.027049	-0.0240372	0
43698.5	-0.0271826	-0.0240376	0
43708.5	-0.0270681	-0.0240379	0
43718.5	-0.0269535	-0.0240376	0
43728.5	-0.0268963	-0.0240374	0
43738.5	-0.0270108	-0.0240372	0
43748.5	-0.0269154	-0.0240379	0
43758.5	-0.026839	-0.0240375	0
43768.5	-0.0268772	-0.0240378	0
43778.5	-0.026839	-0.0240374	0
43788.5	-0.0268581	-0.0240372	0
43798.5	-0.0268581	-0.0240373	0
43808.5	-0.0266099	-0.0240379	0
43818.5	-0.0267244	-0.0240373	0
43828.5	-0.0267054	-0.0240376	0
43838.5	-0.0268199	-0.0240373	0
43848.5	-0.0267435	-0.0240376	0
43858.5	-0.0267435	-0.0240371	0
43868.5	-0.0266481	-0.0240371	0
43878.5	-0.0266863	-0.0240376	0
43888.5	-0.0268008	-0.0240376	0
43898.5	-0.0265908	-0.0240374	0
43908.5	-0.026629	-0.0240374	0
43918.5	-0.0265335	-0.0240369	0
43928.5	-0.026629	-0.0240374	0
43938.5	-0.0265908	-0.0240371	0
43948.5	-0.0265717	-0.0240376	0
43958.5	-0.0265526	-0.0240373	0
43968.5	-0.0266099	-0.0240374	0
43978.5	-0.026629	-0.0240376	0
43988.5	-0.0265908	-0.0240375	0
43998.5	-0.0265526	-0.0240376	0
44008.5	-0.026629	-0.0240376	0
44018.5	-0.0265144	-0.0240377	0
44028.5	-0.0264572	-0.0240376	0
44038.5	-0.0264954	-0.0240379	0
44048.5	-0.0265144	-0.024037	0
44058.5	-0.0264381	-0.0240379	0
44068.5	-0.0265144	-0.0240374	0
44078.5	-0.0263617	-0.0240371	0
44088.5	-0.0265526	-0.0240369	0
44098.5	-0.0263426	-0.0240377	0
44108.5	-0.0264381	-0.0240378	0
44118.5	-0.0263617	-0.0240374	0
44128.5	-0.0263808	-0.0240373	0
44138.5	-0.0264572	-0.0240374	0
44148.5	-0.0263617	-0.0240376	0
44158.5	-0.0262854	-0.0240373	0
44168.5	-0.0263617	-0.0240373	0
44178.5	-0.0263999	-0.0240376	0
44188.5	-0.0263426	-0.0240379	0
44198.5	-0.0262854	-0.0240367	0
44208.5	-0.0262854	-0.0240378	0
44218.5	-0.0263808	-0.0240373	0
44228.5	-0.0263426	-0.0240369	0
44238.5	-0.0262854	-0.0240374	0
44248.5	-0.0263235	-0.0240374	0
44258.5	-0.0262472	-0.0240376	0
44268.5	-0.0262854	-0.0240373	0
44278.5	-0.026209	-0.0240373	0
44288.5	-0.0261517	-0.0240376	0
44298.5	-0.026209	-0.0240379	0
44308.5	-0.0262281	-0.0240376	0
44318.5	-0.0261517	-0.0240375	0
44328.5	-0.0261899	-0.0240373	0
44338.5	-0.0261135	-0.0240378	0
44348.5	-0.0261517	-0.0240373	0
44358.5	-0.0263235	-0.0240378	0
44368.5	-0.0261708	-0.0240374	0
44378.5	-0.0261899	-0.0240372	0
44388.5	-0.0262281	-0.0240372	0
44398.5	-0.0262472	-0.0240374	0
44408.5	-0.0261326	-0.0240376	0
44418.5	-0.0260563	-0.0240376	0
44428.5	-0.0261708	-0.0240376	0
44438.5	-0.0261708	-0.0240373	0
44448.5	-0.0262854	-0.0240376	0
44458.5	-0.0261708	-0.0240377	0
44468.5	-0.0260563	-0.0240379	0
44478.5	-0.0260944	-0.0240376	0
44488.5	-0.0260754	-0.0240377	0
44498.5	-0.0261517	-0.0240371	0
44508.5	-0.0260181	-0.0240376	0
44518.5	-0.0261326	-0.0240375	0
44528.5	-0.0260372	-0.0240371	0
44538.5	-0.0260563	-0.0240372	0
44548.5	-0.0260372	-0.0240372	0
44558.5	-0.0260372	-0.0240373	0
44568.5	-0.0260372	-0.0240374	0
44578.5	-0.0260563	-0.0240373	0
44588.5	-0.0259799	-0.0240379	0
44598.5	-0.0258844	-0.0240373	0
44608.5	-0.0258654	-0.0240372	0
44618.5	-0.0258844	-0.0240378	0
44628.5	-0.0259226	-0.0240373	0
44638.5	-0.0258654	-0.0240378	0
44648.5	-0.0256554	-0.0240378	0
44658.5	-0.0258844	-0.0240368	0
44668.5	-0.0258463	-0.0240371	0
44678.5	-0.0259035	-0.0240368	0
44688.5	-0.0259608	-0.0240371	0
44698.5	-0.0259035	-0.0240379	0
44708.5	-0.0259417	-0.0240373	0
44718.5	-0.0257699	-0.0240376	0
44728.5	-0.0257317	-0.0240378	0
44738.5	-0.0257508	-0.0240373	0
44748.5	-0.0257508	-0.0240377	0
44758.5	-0.025789	-0.0240373	0
44768.5	-0.0257126	-0.0240371	0
44778.5	-0.0258844	-0.0240378	0
44788.5	-0.0256935	-0.0240374	0
44798.5	-0.0258081	-0.0240374	0
44808.5	-0.0257699	-0.0240369	0
44818.5	-0.0257126	-0.0240374	0
44828.5	-0.0258081	-0.0240374	0
44838.5	-0.0258272	-0.0240381	0
44848.5	-0.0258463	-0.0240378	0
44858.5	-0.0257699	-0.024037	0
44868.5	-0.0258463	-0.0240376	0
44878.5	-0.0256744	-0.0240374	0
44888.5	-0.025789	-0.0240374	0
44898.5	-0.0257317	-0.0240371	0
44908.5	-0.0256744	-0.0240373	0
44918.5	-0.0257508	-0.0240376	0
44928.5	-0.0257317	-0.0240374	0
44938.5	-0.0257126	-0.0240376	0
44948.5	-0.0255981	-0.0240374	0
44958.5	-0.0256554	-0.0240373	0
44968.5	-0.0257126	-0.0240374	0
44978.5	-0.0255408	-0.0240371	0
44988.5	-0.025579	-0.0240371	0
44998.5	-0.0256172	-0.0240367	0
45008.5	-0.0256363	-0.0240373	0
45018.5	-0.0255408	-0.0240369	0
45022.3	-0.025579	-0.0240373	0

File: 2024-04-23_JP-A2-02_T-cell_Li-Cu_1-mm-PP-spacer_75muL-4MLiFSI-DME_inside-glovebox_added-OCV-0.1s_02_MB_C10.txt
time/s	Ewe/V	I/mA	error
60.053	3.08908	-0.0250155	0
60.1536	0.00842157	-8.63571	0
60.1668	0.00865066	-7.82679	0
60.181	0.00863157	-7.07076	0
60.1978	0.00853611	-6.29873	0
60.2176	0.00861248	-5.54538	0
60.243	0.00861248	-4.80611	0
60.279	0.00859339	-4.07901	0
60.3354	0.00863157	-3.35892	0
60.433	0.00861248	-2.65023	0
60.6406	0.00861248	-1.94474	0
61.2474	0.00853611	-1.23956	0
65.0528	0.00859339	-0.543047	0
158.962	0.00859339	-0.153691	0
298.962	0.00863157	-0.101665	0
438.962	0.00876521	-0.0800295	0
578.962	0.00868884	-0.0675129	0
718.962	0.00865066	-0.0592979	0
858.962	0.0085743	-0.0534628	0
998.962	0.00865066	-0.0490976	0
1138.96	0.00865066	-0.045725	0
1278.96	0.00866975	-0.0431423	0
1418.96	0.00866975	-0.0408683	0
1558.96	0.00865066	-0.0388056	0
1698.96	0.00861248	-0.0370012	0
1838.96	0.00868884	-0.0354627	0
1978.96	0.00866975	-0.0340833	0
2118.96	0.00863157	-0.0328719	0
2258.96	0.00861248	-0.0317298	0
2398.96	0.00861248	-0.0307843	0
2538.96	0.00876521	-0.0298071	0
2678.96	0.00859339	-0.0290232	0
2818.96	0.00861248	-0.0281846	0
2958.96	0.00865066	-0.0274192	0
3098.96	0.00872702	-0.0267524	0
3238.96	0.0087843	-0.0261639	0
3378.96	0.00866975	-0.0255461	0
3518.96	0.00866975	-0.0249486	0
3658.96	0.00868884	-0.0244224	0
3798.96	0.00868884	-0.0239338	0
3938.96	0.00870793	-0.0234159	0
4078.96	0.00868884	-0.0228961	0
4218.96	0.00866975	-0.022527	0
4358.96	0.00870793	-0.0220626	0
4498.96	0.00861248	-0.0217069	0
4638.96	0.00868884	-0.0213023	0
4778.96	0.00872702	-0.0209294	0
4918.96	0.00866975	-0.0205852	0
5058.96	0.00876521	-0.0202741	0
5198.96	0.00863157	-0.019989	0
5338.96	0.00866975	-0.0196003	0
5478.96	0.00868884	-0.0193846	0
5618.96	0.00872702	-0.0190665	0
5758.96	0.00865066	-0.0187801	0
5898.96	0.00872702	-0.0184843	0
6038.96	0.00861248	-0.0182444	0
6178.96	0.00872702	-0.0179721	0
6318.96	0.00868884	-0.0177831	0
6458.96	0.00865066	-0.0175305	0
6598.96	0.00861248	-0.0172875	0
6738.96	0.00855521	-0.0170763	0
6878.96	0.00866975	-0.0168275	0
7018.96	0.00876521	-0.0165743	0
7158.96	0.00866975	-0.0163713	0
7298.96	0.00872702	-0.016225	0
7438.96	0.00866975	-0.0160105	0
7578.96	0.00865066	-0.0158082	0
7718.96	0.00865066	-0.0156701	0
7858.96	0.00868884	-0.015499	0
7998.96	0.00863157	-0.0153056	0
8138.96	0.00874612	-0.015116	0
8278.96	0.00868884	-0.0149932	0
8418.96	0.00870793	-0.0147647	0
8558.96	0.00865066	-0.014635	0
8698.96	0.00874612	-0.0145071	0
8838.96	0.00870793	-0.0143149	0
8978.96	0.00876521	-0.0141889	0
9118.96	0.00868884	-0.0140833	0
9258.96	0.00866975	-0.0139287	0
9398.96	0.00870793	-0.0137385	0
9538.96	0.00872702	-0.0136424	0
9678.96	0.00876521	-0.0135559	0
9818.96	0.00870793	-0.0134025	0
9958.96	0.00865066	-0.0133103	0
10099	0.0085743	-0.0132008	0
10239	0.00870793	-0.0130456	0
10379	0.00868884	-0.0129629	0
10519	0.00870793	-0.012793	0
10659	0.00876521	-0.0127415	0
10799	0.00865066	-0.0126288	0
10939	0.00876521	-0.012541	0
11079	0.00863157	-0.0123903	0
11219	0.00866975	-0.0123241	0
11359	0.00866975	-0.0122293	0
11499	0.0087843	-0.0121307	0
11639	0.00870793	-0.0120473	0
11779	0.00863157	-0.0120174	0
11919	0.00868884	-0.0118952	0
12059	0.00872702	-0.0117661	0
12199	0.00853611	-0.0117375	0
12339	0.00866975	-0.0116121	0
12479	0.00880339	-0.011565	0
12619	0.00866975	-0.0115122	0
12759	0.00872702	-0.0114028	0
12899	0.00868884	-0.011357	0
13039	0.00868884	-0.0112584	0
13179	0.00866975	-0.0112068	0
13319	0.00866975	-0.0110885	0
13459	0.00870793	-0.011084	0
13599	0.00866975	-0.0109409	0
13739	0.00870793	-0.0108378	0
13879	0.00865066	-0.0107786	0
14019	0.00866975	-0.010666	0
14159	0.00874612	-0.0105935	0
14299	0.00863157	-0.0105368	0
14439	0.00866975	-0.0104669	0
14579	0.00866975	-0.0104026	0
14719	0.00861248	-0.0103409	0
14859	0.00872702	-0.0102823	0
14999	0.00872702	-0.0101074	0
15139	0.00870793	-0.0101016	0
15279	0.00863157	-0.0100393	0
15419	0.00868884	-0.00996103	0
15559	0.00870793	-0.00993876	0
15699	0.00868884	-0.00983633	0
15839	0.00865066	-0.00975361	0
15979	0.00872702	-0.00969762	0
16119	0.00872702	-0.0096569	0
16259	0.00863157	-0.009599	0
16399	0.00872702	-0.00952902	0
16539	0.0085743	-0.00946094	0
16679	0.0085743	-0.00935087	0
16819	0.00870793	-0.00931142	0
16959	0.00863157	-0.00925097	0
17099	0.0087843	-0.00918099	0
17239	0.00870793	-0.00908109	0
17379	0.00865066	-0.00907282	0
17519	0.00874612	-0.00898947	0
17659	0.00880339	-0.00897611	0
17799	0.00865066	-0.00887813	0
17939	0.00866975	-0.0088724	0
18079	0.00868884	-0.00877315	0
18219	0.00865066	-0.00875979	0
18359	0.00870793	-0.00870889	0
18499	0.00872702	-0.00869871	0
18639	0.00866975	-0.00865226	0
18779	0.00863157	-0.0086109	0
18919	0.00859339	-0.00852628	0
19059	0.00863157	-0.00848238	0
19199	0.00870793	-0.00842003	0
19339	0.00872702	-0.00835895	0
19479	0.00872702	-0.00830868	0
19619	0.00872702	-0.00826669	0
19759	0.00872702	-0.00822915	0
19899	0.0087843	-0.00818016	0
20039	0.00874612	-0.00812608	0
20179	0.00866975	-0.00806245	0
20319	0.00870793	-0.00804845	0
20459	0.00868884	-0.00801282	0
20599	0.00868884	-0.0079492	0
20739	0.0087843	-0.00788621	0
20879	0.00870793	-0.00784231	0
21019	0.00872702	-0.00782131	0
21159	0.00870793	-0.00773415	0
21299	0.00870793	-0.00773351	0
21439	0.00866975	-0.00768579	0
21579	0.00870793	-0.00760308	0
21719	0.00874612	-0.00756999	0
21859	0.00872702	-0.00756808	0
21999	0.00870793	-0.00753436	0
22139	0.00872702	-0.00747265	0
22279	0.00868884	-0.00741984	0
22419	0.00876521	-0.00739884	0
22559	0.00868884	-0.00736512	0
22699	0.00872702	-0.00730531	0
22839	0.00872702	-0.00726332	0
22979	0.00863157	-0.00724232	0
23119	0.00866975	-0.0071876	0
23259	0.00866975	-0.00716343	0
23399	0.00872702	-0.00711316	0
23539	0.00870793	-0.00709471	0
23679	0.00870793	-0.00709089	0
23819	0.00874612	-0.00706926	0
23959	0.00872702	-0.00700882	0
24099	0.00870793	-0.00695537	0
24239	0.00870793	-0.00692356	0
24379	0.00872702	-0.00690511	0
24519	0.00863157	-0.00683957	0
24659	0.00872702	-0.00684466	0
24799	0.00870793	-0.00681221	0
24939	0.00872702	-0.00672123	0
25079	0.0087843	-0.00669578	0
25219	0.00876521	-0.00668496	0
25359	0.0087843	-0.00669514	0
25499	0.00872702	-0.00663088	0
25639	0.0087843	-0.00661307	0
25779	0.00868884	-0.00662579	0
25919	0.00880339	-0.00659589	0
26059	0.00865066	-0.00652908	0
26199	0.00863157	-0.00651254	0
26339	0.00872702	-0.00646291	0
26479	0.00874612	-0.00640883	0
26619	0.0087843	-0.00635984	0
26759	0.00863157	-0.00637002	0
26899	0.00865066	-0.00639483	0
27039	0.00863157	-0.00632166	0
27179	0.00863157	-0.00629621	0
27319	0.00872702	-0.00633311	0
27459	0.00866975	-0.00620968	0
27599	0.00865066	-0.0061836	0
27739	0.00865066	-0.00617723	0
27879	0.00870793	-0.00614033	0
28019	0.00865066	-0.00615306	0
28159	0.00863157	-0.00609961	0
28299	0.00872702	-0.0061047	0
28439	0.00863157	-0.00606016	0
28579	0.00870793	-0.00607289	0
28719	0.00870793	-0.00602262	0
28859	0.0087843	-0.00600481	0
28999	0.0087843	-0.00601244	0
29139	0.00866975	-0.00597745	0
29279	0.00868884	-0.00594309	0
29419	0.00870793	-0.00592146	0
29559	0.00865066	-0.00589601	0
29699	0.00863157	-0.0059151	0
29839	0.0087843	-0.00591382	0
29979	0.00866975	-0.00585147	0
30119	0.00882248	-0.00584384	0
30259	0.00872702	-0.00583556	0
30399	0.00866975	-0.00580439	0
30539	0.00874612	-0.00577767	0
30679	0.00868884	-0.00576112	0
30819	0.00870793	-0.00572867	0
30959	0.00872702	-0.00571086	0
31099	0.00872702	-0.00572931	0
31239	0.00870793	-0.00566887	0
31379	0.00876521	-0.00564405	0
31519	0.00863157	-0.00561924	0
31659	0.00866975	-0.00562878	0
31799	0.0087843	-0.0055607	0
31939	0.00872702	-0.00556198	0
32079	0.00874612	-0.00557279	0
32219	0.00870793	-0.00558424	0
32359	0.00882248	-0.00553207	0
32499	0.00861248	-0.00553653	0
32639	0.00868884	-0.00549644	0
32779	0.00882248	-0.00544491	0
32919	0.00872702	-0.00544109	0
33059	0.00865066	-0.00543409	0
33199	0.00866975	-0.00545063	0
33339	0.00876521	-0.00544872	0
33479	0.00870793	-0.00540482	0
33619	0.00865066	-0.00535965	0
33759	0.00868884	-0.00537174	0
33899	0.00870793	-0.00533865	0
34039	0.00872702	-0.00529602	0
34179	0.00866975	-0.00535965	0
34319	0.00880339	-0.00527821	0
34459	0.00868884	-0.00525403	0
34599	0.00866975	-0.00526866	0
34739	0.00870793	-0.00522222	0
34879	0.00866975	-0.00525785	0
35019	0.00868884	-0.00524194	0
35159	0.00859339	-0.00521458	0
35299	0.0087843	-0.00515923	0
35439	0.00874612	-0.00517259	0
35579	0.00859339	-0.00517132	0
35719	0.00866975	-0.0051325	0
35859	0.00876521	-0.00512423	0
35999	0.00866975	-0.00510769	0
36139	0.00872702	-0.0051306	0
36279	0.00868884	-0.00514523	0
36419	0.00866975	-0.00519613	0
36559	0.00868884	-0.00515032	0
36699	0.00866975	-0.00507397	0
36839	0.00866975	-0.00500907	0
36979	0.00870793	-0.00501034	0
37119	0.0087843	-0.0049289	0
37259	0.00866975	-0.00495944	0
37399	0.00868884	-0.00500653	0
37539	0.00876521	-0.00492636	0
37679	0.00874612	-0.00495881	0
37819	0.00863157	-0.00492254	0
37959	0.00872702	-0.00489391	0
38099	0.00866975	-0.00486019	0
38239	0.00870793	-0.00487355	0
38379	0.00880339	-0.00484937	0
38519	0.00876521	-0.00481501	0
38659	0.00863157	-0.00482201	0
38799	0.00868884	-0.00481183	0
38939	0.0087843	-0.00479656	0
39079	0.00872702	-0.00480165	0
39219	0.00876521	-0.00478765	0
39359	0.00866975	-0.00477302	0
39499	0.00876521	-0.00473485	0
39639	0.00868884	-0.00472276	0
39779	0.00880339	-0.0047463	0
39919	0.00863157	-0.00472212	0
40059	0.00863157	-0.0046674	0
40199	0.00870793	-0.00470049	0
40200.3	0.00882248	-0.0064381	0

File: 2024-04-23_JP-A2-02_T-cell_Li-Cu_1-mm-PP-spacer_75muL-4MLiFSI-DME_inside-glovebox_added-OCV-0.1s_04_CP_C10.txt
time/s	Ewe/V	I/mA	error
40200.5	-0.0202131	-0.19452	0
40200.5	-0.0631501	-0.195965	0
40200.5	-0.0772393	-0.195975	0
40200.5	-0.0840929	-0.195982	0
40200.5	-0.0883121	-0.195976	0
40200.5	-0.0913093	-0.195974	0
40200.5	-0.0936575	-0.195979	0
40200.5	-0.0973803	-0.195985	0
40200.5	-0.100778	-0.195979	0
40200.5	-0.103623	-0.195986	0
40200.5	-0.106124	-0.195984	0
40200.5	-0.108587	-0.195987	0
40200.5	-0.110744	-0.195981	0
40200.5	-0.113016	-0.195984	0
40200.5	-0.115612	-0.195981	0
40200.5	-0.118018	-0.195981	0
40200.5	-0.12071	-0.195982	0
40200.5	-0.12342	-0.195986	0
40200.5	-0.126017	-0.195986	0
40200.5	-0.128365	-0.195981	0
40200.5	-0.130637	-0.195987	0
40200.5	-0.132947	-0.195981	0
40200.5	-0.135467	-0.195985	0
40200.5	-0.137911	-0.195982	0
40200.5	-0.140221	-0.195992	0
40200.5	-0.142416	-0.195987	0
40200.5	-0.144726	-0.195978	0
40200.5	-0.147131	-0.195982	0
40200.5	-0.149594	-0.195989	0
40200.5	-0.152076	-0.195984	0
40200.5	-0.154558	-0.195991	0
40200.5	-0.156772	-0.195985	0
40200.5	-0.159292	-0.195984	0
40200.5	-0.161793	-0.195985	0
40200.5	-0.163932	-0.195984	0
40200.5	-0.166032	-0.195983	0
40200.5	-0.168151	-0.195981	0
40200.5	-0.170346	-0.195984	0
40200.5	-0.172637	-0.195982	0
40200.5	-0.175004	-0.195988	0
40200.5	-0.177333	-0.195988	0
40200.5	-0.179376	-0.195986	0
40200.5	-0.181686	-0.195985	0
40200.5	-0.183863	-0.195981	0
40200.5	-0.18602	-0.195981	0
40200.6	-0.188177	-0.195978	0
40200.6	-0.190487	-0.195988	0
40200.6	-0.19274	-0.195983	0
40200.6	-0.195241	-0.195986	0
40200.6	-0.197398	-0.195984	0
40200.6	-0.199594	-0.195981	0
40200.6	-0.201636	-0.195988	0
40200.6	-0.20387	-0.195984	0
40200.6	-0.206008	-0.195979	0
40200.6	-0.208223	-0.195984	0
40200.6	-0.210399	-0.195986	0
40200.6	-0.212575	-0.195983	0
40200.6	-0.214733	-0.195983	0
40200.6	-0.217081	-0.195986	0
40200.6	-0.219181	-0.195986	0
40200.6	-0.2213	-0.195983	0
40200.6	-0.223457	-0.195981	0
40200.6	-0.225596	-0.195985	0
40200.6	-0.227753	-0.195984	0
40200.6	-0.229834	-0.195988	0
40200.6	-0.231934	-0.195991	0
40200.6	-0.234053	-0.195986	0
40200.6	-0.236115	-0.195983	0
40200.6	-0.238272	-0.195984	0
40200.6	-0.240429	-0.195984	0
40200.6	-0.24251	-0.195986	0
40200.6	-0.244667	-0.195986	0
40200.7	-0.246825	-0.195988	0
40200.7	-0.249154	-0.195985	0
40200.7	-0.251311	-0.195987	0
40200.7	-0.253392	-0.195983	0
40200.7	-0.255492	-0.195984	0
40200.7	-0.257592	-0.19598	0
40200.7	-0.25973	-0.195984	0
40200.7	-0.261888	-0.195983	0
40200.7	-0.264083	-0.195983	0
40200.7	-0.266126	-0.195988	0
40200.7	-0.268226	-0.195986	0
40200.8	-0.270249	-0.195981	0
40200.8	-0.26813	-0.195988	0
40200.8	-0.265954	-0.195989	0
40200.8	-0.263854	-0.195988	0
40200.8	-0.261811	-0.195984	0
40200.9	-0.259749	-0.195986	0
40200.9	-0.257668	-0.195987	0
40200.9	-0.255588	-0.195985	0
40200.9	-0.253487	-0.19598	0
40200.9	-0.251177	-0.195988	0
40200.9	-0.249058	-0.195978	0
40200.9	-0.246806	-0.19599	0
40200.9	-0.244782	-0.19598	0
40200.9	-0.242625	-0.195986	0
40200.9	-0.240391	-0.195983	0
40200.9	-0.238272	-0.195983	0
40200.9	-0.236229	-0.195979	0
40201	-0.233996	-0.195985	0
40201	-0.231876	-0.195984	0
40201	-0.229796	-0.195984	0
40201	-0.227619	-0.195987	0
40201	-0.225576	-0.195984	0
40201	-0.223496	-0.195987	0
40201	-0.221396	-0.195988	0
40201	-0.219334	-0.195988	0
40201	-0.217196	-0.195979	0
40201.1	-0.215076	-0.195979	0
40201.1	-0.2129	-0.195982	0
40201.1	-0.210781	-0.195987	0
40201.1	-0.208738	-0.195984	0
40201.1	-0.206562	-0.195984	0
40201.2	-0.204462	-0.195985	0
40201.2	-0.2024	-0.195988	0
40201.2	-0.200376	-0.195983	0
40201.2	-0.198353	-0.195986	0
40201.3	-0.196272	-0.195981	0
40201.3	-0.194229	-0.195988	0
40201.3	-0.192148	-0.195991	0
40201.4	-0.190124	-0.195988	0
40201.4	-0.188101	-0.19599	0
40201.5	-0.18602	-0.195982	0
40201.5	-0.183901	-0.195988	0
40201.6	-0.181877	-0.19599	0
40201.6	-0.179796	-0.195982	0
40201.7	-0.177773	-0.195984	0
40201.8	-0.175711	-0.195983	0
40201.9	-0.173573	-0.19599	0
40202	-0.171492	-0.195991	0
40202.2	-0.169411	-0.195981	0
40202.4	-0.167387	-0.195986	0
40202.6	-0.165363	-0.19599	0
40202.9	-0.163321	-0.195984	0
40203.4	-0.161259	-0.195993	0
40204	-0.159178	-0.195985	0
40205.1	-0.157097	-0.195987	0
40206.5	-0.155054	-0.195988	0
40208.1	-0.153031	-0.195983	0
40209.8	-0.150988	-0.195988	0
40211.6	-0.148888	-0.195983	0
40213.2	-0.146864	-0.195987	0
40214.8	-0.144783	-0.195984	0
40216.4	-0.14276	-0.195982	0
40218.1	-0.14066	-0.195988	0
40219.9	-0.138636	-0.195985	0
40221.6	-0.136555	-0.195983	0
40223.5	-0.134493	-0.195981	0
40225.6	-0.13247	-0.195984	0
40227.7	-0.130427	-0.195981	0
40230.1	-0.128365	-0.19599	0
40232.5	-0.126341	-0.195982	0
40235.4	-0.12428	-0.195988	0
40238.5	-0.122237	-0.195983	0
40241.9	-0.120194	-0.195991	0
40245.7	-0.118132	-0.195989	0
40250.1	-0.116109	-0.195988	0
40255.1	-0.114066	-0.195986	0
40261	-0.111966	-0.195982	0
40268	-0.109885	-0.195984	0
40276	-0.107861	-0.195987	0
40285.3	-0.105838	-0.195985	0
40296.5	-0.103795	-0.195987	0
40309.6	-0.101771	-0.195985	0
40324.8	-0.0997476	-0.195986	0
40343.4	-0.0977239	-0.195983	0
40362.5	-0.0960248	-0.195984	0
40382.5	-0.0948412	-0.195986	0
40402.5	-0.0938675	-0.195988	0
40422.5	-0.0928748	-0.195989	0
40442.5	-0.0921684	-0.19599	0
40462.5	-0.0916339	-0.195991	0
40482.5	-0.091233	-0.195988	0
40502.5	-0.0906984	-0.195987	0
40522.5	-0.0904502	-0.195995	0
40542.5	-0.0900302	-0.195987	0
40562.5	-0.0896484	-0.195985	0
40582.5	-0.0894575	-0.19599	0
40602.5	-0.089343	-0.195988	0
40622.5	-0.088923	-0.195989	0
40642.5	-0.0886366	-0.195983	0
40662.5	-0.0885602	-0.195982	0
40682.5	-0.0884266	-0.19599	0
40702.5	-0.0882357	-0.195994	0
40722.5	-0.0880639	-0.195987	0
40742.5	-0.087873	-0.195988	0
40762.5	-0.0876248	-0.195983	0
40782.5	-0.0875484	-0.195987	0
40802.5	-0.0873766	-0.195984	0
40822.5	-0.087262	-0.195986	0
40842.5	-0.0871284	-0.195987	0
40862.5	-0.0869375	-0.195985	0
40882.5	-0.0867275	-0.19598	0
40902.5	-0.0866511	-0.195986	0
40922.5	-0.0863839	-0.195988	0
40942.5	-0.0862884	-0.195985	0
40962.5	-0.0861739	-0.195986	0
40982.5	-0.085983	-0.195987	0
41002.5	-0.0858302	-0.195987	0
41022.5	-0.0856966	-0.195988	0
41042.5	-0.0855057	-0.195989	0
41062.5	-0.0852575	-0.19599	0
41082.5	-0.0852193	-0.195984	0
41102.5	-0.0850475	-0.195991	0
41122.5	-0.0848566	-0.195989	0
41142.5	-0.0848184	-0.195981	0
41162.5	-0.0845511	-0.19599	0
41182.5	-0.0844939	-0.195988	0
41202.5	-0.0841693	-0.195986	0
41222.5	-0.0841502	-0.195989	0
41242.5	-0.0840357	-0.195986	0
41262.5	-0.0837875	-0.195983	0
41282.5	-0.0837111	-0.195985	0
41302.5	-0.0836157	-0.19599	0
41322.5	-0.0835202	-0.195987	0
41342.5	-0.0832148	-0.195983	0
41362.5	-0.0833102	-0.195991	0
41382.5	-0.0830048	-0.195985	0
41402.5	-0.0829284	-0.195983	0
41422.5	-0.0828711	-0.195985	0
41429.9	-0.0834057	-0.196011	0
41449.9	-0.0826993	-0.195991	0
41469.9	-0.0825084	-0.195986	0
41489.9	-0.0825084	-0.195987	0
41509.9	-0.0823557	-0.195987	0
41529.9	-0.0822602	-0.195984	0
41549.9	-0.0821457	-0.195986	0
41569.9	-0.0820311	-0.195994	0
41589.9	-0.0820884	-0.195984	0
41609.9	-0.0818975	-0.195986	0
41629.9	-0.0817829	-0.19599	0
41649.9	-0.0816111	-0.195983	0
41669.9	-0.0817447	-0.195987	0
41689.9	-0.0815729	-0.195991	0
41709.9	-0.0814584	-0.195987	0
41729.9	-0.0812675	-0.195993	0
41749.9	-0.0812293	-0.195982	0
41769.9	-0.0812866	-0.195982	0
41789.9	-0.0810384	-0.195985	0
41809.9	-0.0811338	-0.195989	0
41829.9	-0.0809811	-0.195988	0
41849.9	-0.0808666	-0.195993	0
41869.9	-0.0807902	-0.195989	0
41889.9	-0.0806566	-0.195985	0
41909.9	-0.080752	-0.195988	0
41929.9	-0.0806184	-0.195984	0
41949.9	-0.0806566	-0.195983	0
41969.9	-0.0804847	-0.195986	0
41989.9	-0.0803893	-0.195989	0
42000.5	-0.0804275	-0.195984	0