Folder: MASTER-THESIS/EXPERIMENTAL/Data/Battery-cycling/JP-measurements/T-cell

Note: EXPERIMENTAL/Data/Battery-cycling/JP-measurements/T-cell/2024-04-22_JP-A1_T-cell_Li-Cu_1-mm-PP-spacer_75muL-4MLiFSI-DME_inside-glovebox_added-OCV-0.1s_01_OCV_C05.txt
time/s	<Ewe>/V	error	
9.999999747378752E+000	3.0200195E+000	0
1.999999949475750E+001	3.0200245E+000	0
2.999999924213625E+001	3.0200307E+000	0
3.999999898951501E+001	3.0200427E+000	0
4.999999873689376E+001	3.0200570E+000	0
5.999979848427756E+001	3.0200725E+000	0

Note: EXPERIMENTAL/Data/Battery-cycling/JP-measurements/T-cell/2024-04-22_JP-A3_T-cell_Li-Cu_1-mm-PP-spacer_75muL-4MLiFSI-DME_inside-glovebox_01_OCV_C10.txt
time/s	<Ewe>/V	error	
9.999999747378752E+000	3.0658193E+000	0
1.999999949475750E+001	3.0661986E+000	0
2.999999924213625E+001	3.0665808E+000	0
3.999999898951501E+001	3.0669291E+000	0
4.999999873689376E+001	3.0673029E+000	0
5.999979848427756E+001	3.0676484E+000	0

Note: EXPERIMENTAL/Data/Battery-cycling/JP-measurements/T-cell/2024-04-23_JP-A2-02_T-cell_Li-Cu_1-mm-PP-spacer_75muL-4MLiFSI-DME_inside-glovebox_added-OCV-0.1s_01_OCV_C10.txt
time/s	<Ewe>/V	error	
9.999999747378752E+000	3.1076074E+000	0
1.999999949475750E+001	3.1076264E+000	0
2.999999924213625E+001	3.1076427E+000	0
3.999999898951501E+001	3.1076617E+000	0
4.999999873689376E+001	3.1076782E+000	0
5.999979848427756E+001	3.1077001E+000	0

Note: EXPERIMENTAL/Data/Battery-cycling/JP-measurements/T-cell/2024-04-23_JP-A3-02_T-cell_Li-Cu_1-mm-PP-spacer_75muL-4MLiFSI-DME_inside-glovebox_added-OCV-0.1s_01_OCV_C10.txt
time/s	<Ewe>/V	error	
9.999999747378752E+000	2.7906845E+000	0
1.999999949475750E+001	2.7913706E+000	0
2.999999924213625E+001	2.7920246E+000	0
3.999999898951501E+001	2.7927041E+000	0
4.999999873689376E+001	2.7933705E+000	0
5.999979848427756E+001	2.7939980E+000	0

Note: EXPERIMENTAL/Data/Battery-cycling/JP-measurements/T-cell/2024-04-25_JP-A1-02_T-cell_Li-Cu_1-mm-PP-spacer_75muL-4MLiFSI-DME_inside-glovebox_added-OCV-0.1s_01_OCV_C05.txt
time/s	<Ewe>/V	error	
9.999999747378752E+000	2.9485800E+000	0
1.999999949475750E+001	2.9490464E+000	0
2.999999924213625E+001	2.9498188E+000	0
3.999999898951501E+001	2.9502339E+000	0
4.999999873689376E+001	2.9506917E+000	0
5.999979848427756E+001	2.9489448E+000	0

Note: EXPERIMENTAL/Data/Battery-cycling/JP-measurements/T-cell/2024-04-26_JP-A2-04_T-cell_Li-Cu_1-mm-PP-spacer_75muL-4MLiFSI-DME_inside-glovebox_added-OCV-0.1s_01_OCV_C10.txt
time/s	<Ewe>/V	error	
9.999999747378752E+000	2.9830866E+000	0
1.999999949475750E+001	2.9836266E+000	0
2.999999924213625E+001	2.9841456E+000	0
3.999999898951501E+001	2.9846585E+000	0
4.999999873689376E+001	2.9851248E+000	0
5.999979848427756E+001	2.9856427E+000	0

File: 2024-04-22_JP-A1_T-cell_Li-Cu_1-mm-PP-spacer_75muL-4MLiFSI-DME_inside-glovebox_added-OCV-0.1s_02_MB_C05.txt
time/s	Ewe/V	I/mA	error
60.053	3.00013	-0.0250364	0
60.4112	0.00840554	-2.50459	0
497.755	0.00834823	-0.0614108	0
1387.75	0.00848196	-0.0388277	0
2277.75	0.00840554	-0.0304206	0
3167.75	0.00853928	-0.0258073	0
4057.75	0.00846286	-0.0224865	0
4947.75	0.00848196	-0.0198794	0
5837.75	0.00850107	-0.0179325	0
6727.75	0.00840554	-0.0163879	0
7617.75	0.00838644	-0.0148332	0
8507.75	0.00838644	-0.0138496	0
9397.75	0.00850107	-0.013353	0
10287.8	0.00857749	-0.0125629	0
11177.8	0.00848196	-0.0118142	0
12067.8	0.00859659	-0.0112068	0
12957.8	0.00838644	-0.0106338	0
13847.8	0.00855838	-0.0101321	0
14737.8	0.00842465	-0.00967306	0
15627.8	0.00850107	-0.0093299	0
16517.8	0.00840554	-0.00896701	0
17407.8	0.00857749	-0.0086213	0
18297.8	0.00840554	-0.00830424	0
19187.8	0.00848196	-0.00806868	0
20077.8	0.00840554	-0.00784648	0
20967.8	0.00842465	-0.00755999	0
21857.8	0.00857749	-0.00736008	0
22747.8	0.00834823	-0.00718436	0
23637.8	0.00848196	-0.00698572	0
24527.8	0.00853928	-0.00670686	0
25417.8	0.00848196	-0.00650249	0
26307.8	0.00844375	-0.00631659	0
27197.8	0.00844375	-0.00609503	0
28087.8	0.00846286	-0.00595751	0
28977.8	0.00846286	-0.00567929	0
29867.8	0.00840554	-0.00558379	0
30757.8	0.00857749	-0.00538643	0
31647.8	0.00840554	-0.00527374	0
32537.8	0.00857749	-0.00507765	0
33427.8	0.00840554	-0.00496623	0
34317.8	0.00853928	-0.00479433	0
35207.8	0.00840554	-0.00466063	0
36097.8	0.00859659	-0.00457405	0
36987.8	0.00836733	-0.00446575	0
37877.8	0.00848196	-0.0043173	0
38767.8	0.00844375	-0.00417324	0
39657.8	0.00834823	-0.00408714	0
40547.8	0.00844375	-0.00395155	0
41437.8	0.00840554	-0.00386373	0
42327.8	0.00846286	-0.00375534	0
43217.8	0.00853928	-0.00366172	0
44107.8	0.00846286	-0.00359568	0
44997.8	0.00848196	-0.00347404	0
45887.8	0.00834823	-0.003418	0
46777.8	0.00855838	-0.0033389	0
47667.8	0.00846286	-0.00325236	0
48557.8	0.00853928	-0.00320593	0
49447.8	0.00844375	-0.00311976	0
50337.8	0.00836733	-0.00306633	0
51227.8	0.00838644	-0.0029787	0
52117.8	0.00840554	-0.00298539	0
53007.8	0.00838644	-0.0028726	0
53897.8	0.00844375	-0.00286343	0
54787.8	0.00842465	-0.00276529	0
55677.8	0.00846286	-0.00273211	0
56567.8	0.00848196	-0.00269881	0
57457.8	0.00857749	-0.00269505	0
58347.8	0.00850107	-0.00263226	0
59237.8	0.00850107	-0.00257411	0
60127.8	0.00846286	-0.00254781	0
61017.8	0.00846286	-0.00253265	0
61907.8	0.00840554	-0.00250062	0
62797.8	0.00842465	-0.00247037	0
63687.8	0.00848196	-0.00236745	0
64577.8	0.00836733	-0.00235714	0
65467.8	0.00853928	-0.00232434	0
66357.8	0.00834823	-0.00233459	0
67247.8	0.00848196	-0.00230383	0
68137.8	0.00844375	-0.00225709	0
69027.8	0.00832912	-0.0022576	0
69917.8	0.00838644	-0.0022441	0
70807.9	0.00850107	-0.00223645	0
71697.9	0.00842465	-0.00223677	0
72587.9	0.00846286	-0.002192	0
73477.9	0.00844375	-0.00220315	0
74367.9	0.00844375	-0.00227651	0
75257.9	0.00852017	-0.00222518	0
76148	0.00850107	-0.00223945	0
77038	0.00850107	-0.00218035	0
77928	0.00848196	-0.00222665	0
78818	0.00846286	-0.00215271	0
79708	0.00855838	-0.00217716	0
80598.1	0.00852017	-0.00215398	0
81488.1	0.00844375	-0.00212704	0
82378.1	0.00853928	-0.00213029	0
83268.1	0.00855838	-0.00216831	0
84158.1	0.00842465	-0.00193866	0
85048.1	0.00852017	-0.00197598	0
85938.2	0.00846286	-0.00197713	0
86828.2	0.00848196	-0.00202604	0
87718.2	0.00850107	-0.00209711	0
88608.2	0.00846286	-0.00214379	0
89498.2	0.00844375	-0.00209768	0
90388.2	0.00848196	-0.00214424	0
91278.3	0.00850107	-0.00218016	0
92168.3	0.00855838	-0.00213882	0
93058.3	0.00850107	-0.00213577	0
93948.3	0.00846286	-0.00211609	0
94838.3	0.00848196	-0.00208724	0
95728.4	0.00844375	-0.00210322	0
96618.4	0.00842465	-0.00210934	0
97508.4	0.00846286	-0.00207164	0
98398.4	0.00842465	-0.00199496	0
99288.4	0.00838644	-0.00198999	0
100178	0.00840554	-0.00191854	0
101068	0.00852017	-0.00187237	0
101958	0.00846286	-0.00182849	0
102848	0.00842465	-0.0018353	0
103739	0.00850107	-0.00177162	0
104629	0.00853928	-0.00176843	0
105519	0.00844375	-0.00173869	0
106409	0.00848196	-0.00172869	0
107299	0.00838644	-0.0017029	0
108189	0.00842465	-0.00163941	0
109079	0.00844375	-0.00162648	0
109969	0.00834823	-0.00158521	0
110859	0.00844375	-0.00155744	0
111749	0.00838644	-0.00151146	0
112639	0.00846286	-0.00149191	0
113529	0.00846286	-0.00145867	0
114419	0.00844375	-0.00145485	0
115309	0.00852017	-0.00140899	0
116199	0.00846286	-0.00139963	0
117089	0.00842465	-0.00139709	0
117979	0.00844375	-0.00138556	0
118869	0.00842465	-0.0013662	0
119759	0.00848196	-0.00134588	0
120649	0.00846286	-0.00133646	0
121539	0.00846286	-0.0013092	0
122429	0.00832912	-0.00131964	0
123319	0.00842465	-0.0013127	0
124209	0.00855838	-0.00129538	0
125099	0.00838644	-0.00132589	0
125989	0.00846286	-0.00130901	0
126879	0.00836733	-0.00131703	0
127769	0.00840554	-0.00145529	0
128659	0.00844375	-0.00178868	0
129549	0.00853928	-0.00171838	0
130439	0.00850107	-0.00169035	0
131329	0.00848196	-0.00166514	0
132219	0.00836733	-0.0016231	0
133109	0.00840554	-0.00159368	0
133999	0.00848196	-0.00162183	0
134889	0.00844375	-0.00155974	0
135779	0.00844375	-0.00154534	0
136669	0.00848196	-0.00156171	0
137559	0.00842465	-0.00152318	0
138449	0.00840554	-0.00150344	0
139339	0.00842465	-0.00152293	0
140229	0.00848196	-0.00152605	0
141119	0.00846286	-0.00151618	0
142009	0.00836733	-0.0015	0
142899	0.00846286	-0.00147115	0
143789	0.00848196	-0.00149491	0
144679	0.00846286	-0.00145052	0
145569	0.00836733	-0.0014102	0
146459	0.00848196	-0.00141524	0
147349	0.00842465	-0.0014225	0
148239	0.00846286	-0.00135009	0
149129	0.00848196	-0.00136747	0
150019	0.00846286	-0.00135907	0
150909	0.00848196	-0.00132862	0
151799	0.00844375	-0.00134435	0
152689	0.00850107	-0.00134983	0
153579	0.00844375	-0.00130245	0
154469	0.00840554	-0.00131512	0
155359	0.00838644	-0.0012792	0
156249	0.00846286	-0.00131156	0
157139	0.00846286	-0.00129487	0
158029	0.00846286	-0.00130086	0
158919	0.00850107	-0.00134021	0
159809	0.00850107	-0.0013497	0
160699	0.00848196	-0.00132168	0
161589	0.00836733	-0.00129188	0
162479	0.00850107	-0.00132824	0
163369	0.00842465	-0.00129283	0
164259	0.00840554	-0.00131703	0
165149	0.00844375	-0.00129602	0
166039	0.00853928	-0.00132136	0
166929	0.00850107	-0.00127112	0
167819	0.00850107	-0.00127946	0
168709	0.00850107	-0.00126927	0
169599	0.00836733	-0.001258	0
170489	0.00838644	-0.00125908	0
171379	0.00852017	-0.00123437	0
172269	0.00844375	-0.00125876	0
173159	0.00850107	-0.00128723	0
174049	0.00844375	-0.00127494	0
174939	0.00850107	-0.00126417	0
175829	0.00853928	-0.00129697	0
176719	0.00846286	-0.00128646	0
177609	0.00850107	-0.00126863	0
178499	0.00844375	-0.00128111	0
179389	0.00846286	-0.00129958	0
180279	0.00844375	-0.00129946	0
181169	0.00855838	-0.00133951	0
182059	0.00853928	-0.00139033	0
182949	0.00852017	-0.0013953	0
183839	0.00840554	-0.00143574	0
184729	0.00844375	-0.00146281	0
185619	0.00846286	-0.00148255	0
186509	0.00852017	-0.0014865	0
187399	0.00846286	-0.00149783	0
188289	0.00850107	-0.00149465	0
189179	0.00852017	-0.00145427	0
190069	0.00848196	-0.00146408	0
190959	0.00840554	-0.0014465	0
191849	0.00838644	-0.0014295	0
192739	0.00852017	-0.00141422	0
193629	0.00832912	-0.00139033	0
194519	0.00848196	-0.00138944	0
195409	0.00844375	-0.00137671	0
196299	0.00853928	-0.00137849	0
197189	0.00850107	-0.00133448	0
198079	0.00846286	-0.00132397	0
198969	0.00844375	-0.00132175	0
199859	0.00844375	-0.00131621	0
200749	0.00848196	-0.00132098	0
201639	0.00850107	-0.00131595	0
202529	0.00842465	-0.00131175	0
203419	0.00850107	-0.00128379	0
204309	0.00853928	-0.00132117	0
205199	0.00842465	-0.00131671	0
206089	0.00855838	-0.00128506	0
206979	0.00852017	-0.00126456	0
207869	0.0086157	-0.00125621	0
208759	0.00855838	-0.0012636	0
209649	0.00857749	-0.00125348	0
210539	0.00848196	-0.00125596	0
211429	0.00846286	-0.00126386	0
212319	0.00844375	-0.00126882	0
213209	0.00859659	-0.00124239	0
214099	0.00853928	-0.0012694	0
214989	0.00853928	-0.00127099	0
215879	0.00844375	-0.0012331	0
216769	0.00842465	-0.00121826	0
217659	0.00846286	-0.00122284	0
218549	0.00852017	-0.00121106	0
219439	0.00842465	-0.00124271	0
220329	0.00844375	-0.00121144	0
221219	0.00855838	-0.00118954	0
222109	0.00834823	-0.00120215	0
222999	0.00848196	-0.00119234	0
223889	0.00844375	-0.00118075	0
224779	0.00852017	-0.00118298	0
225669	0.00850107	-0.00117973	0
226559	0.00852017	-0.00118852	0
227449	0.00848196	-0.00117132	0
228339	0.00840554	-0.00114973	0
229229	0.00846286	-0.00116336	0
230119	0.00846286	-0.0011305	0
231009	0.00850107	-0.00112541	0
231899	0.00852017	-0.0011256	0
232789	0.00846286	-0.00113534	0
233679	0.00850107	-0.00111375	0
234569	0.00852017	-0.00111955	0
235459	0.00844375	-0.00111426	0
236349	0.00852017	-0.00111751	0
237239	0.00840554	-0.00110401	0
238129	0.00842465	-0.00110496	0
239019	0.00840554	-0.0010963	0
239909	0.00855838	-0.00111267	0
240799	0.00838644	-0.00110089	0
241689	0.00848196	-0.00110216	0
242579	0.00836733	-0.0011121	0
243469	0.00850107	-0.00112152	0
244359	0.00850107	-0.00116292	0
245249	0.00848196	-0.00114763	0
246139	0.00848196	-0.00115132	0
247029	0.00855838	-0.0011724	0
247919	0.00857749	-0.00120412	0
248809	0.00846286	-0.0012194	0
249699	0.00848196	-0.00116718	0
250589	0.00844375	-0.00117871	0
251479	0.00846286	-0.00116846	0
252369	0.00846286	-0.00112795	0
253259	0.00848196	-0.00114241	0
254149	0.00840554	-0.00111388	0
255039	0.00842465	-0.0011205	0
255929	0.00853928	-0.00111986	0
256819	0.00853928	-0.0011298	0
257709	0.00853928	-0.0011384	0
258599	0.00844375	-0.00115687	0
259489	0.00846286	-0.00112063	0
260379	0.00850107	-0.00109757	0
261269	0.00844375	-0.00108637	0
262159	0.00850107	-0.00107439	0
263049	0.00846286	-0.00106484	0
263901	0.00852017	-0.00105898	0

File: 2024-04-22_JP-A2_T-cell_Li-Cu_1-mm-PP-spacer_75muL-4MLiFSI-DME_inside-glovebox_02_MB_C10.txt
time/s	Ewe/V	I/mA	error
60.053	3.04658	-0.0250155	0
60.156	0.00876521	-7.17125	0
60.1722	0.00865066	-6.34372	0
60.1916	0.00865066	-5.54238	0
60.2172	0.00865066	-4.73773	0
60.2538	0.00866975	-3.95519	0
60.314	0.00865066	-3.18648	0
60.429	0.00866975	-2.42873	0
60.6976	0.00865066	-1.67314	0
61.6516	0.00874612	-0.919788	0
75.1162	0.00874612	-0.254441	0
223.915	0.00865066	-0.0870355	0
373.915	0.00866975	-0.0646876	0
523.915	0.00874612	-0.0534119	0
673.915	0.00861248	-0.0459223	0
823.915	0.00874612	-0.0412246	0
973.915	0.00863157	-0.0373142	0
1123.91	0.0087843	-0.0342564	0
1273.91	0.00884157	-0.0317438	0
1423.91	0.00865066	-0.0297307	0
1573.91	0.00866975	-0.0277087	0
1723.91	0.00872702	-0.02612	0
1873.91	0.00876521	-0.0243117	0
2023.91	0.00874612	-0.0225372	0
2173.91	0.00868884	-0.0216923	0
2323.91	0.00872702	-0.0208931	0
2473.91	0.00872702	-0.0202149	0
2623.91	0.00876521	-0.0201608	0
2773.91	0.00861248	-0.0193967	0
2923.91	0.00872702	-0.0189029	0
3073.91	0.0087843	-0.0184111	0
3223.91	0.00866975	-0.0179091	0
3373.91	0.00861248	-0.0174459	0
3523.91	0.00866975	-0.0170909	0
3673.91	0.00868884	-0.0167079	0
3823.91	0.00865066	-0.0163344	0
3973.91	0.00865066	-0.0160474	0
4123.91	0.00874612	-0.015721	0
4273.91	0.00868884	-0.0154684	0
4423.91	0.00866975	-0.0151713	0
4573.91	0.00882248	-0.0149155	0
4723.91	0.00866975	-0.0146712	0
4873.91	0.0087843	-0.0144205	0
5023.91	0.00870793	-0.0141947	0
5173.91	0.00880339	-0.0139548	0
5323.91	0.00866975	-0.0137499	0
5473.91	0.0087843	-0.0135641	0
5623.91	0.00865066	-0.0134223	0
5773.91	0.0087843	-0.0131989	0
5923.91	0.00865066	-0.0129508	0
6073.91	0.00861248	-0.0128115	0
6223.91	0.00880339	-0.0126352	0
6373.91	0.00863157	-0.0127357	0
6523.91	0.00863157	-0.0126276	0
6673.91	0.00870793	-0.0124329	0
6823.91	0.00866975	-0.012361	0
6973.91	0.00870793	-0.0122026	0
7123.91	0.00880339	-0.0120759	0
7273.91	0.00866975	-0.0119595	0
7423.91	0.00868884	-0.011817	0
7573.91	0.00876521	-0.0116668	0
7723.91	0.00868884	-0.0115924	0
7873.91	0.00861248	-0.0114569	0
8023.91	0.00874612	-0.0113474	0
8173.91	0.00872702	-0.0112463	0
8323.91	0.00872702	-0.0111146	0
8473.91	0.00859339	-0.0110688	0
8623.91	0.00866975	-0.0109103	0
8773.91	0.00865066	-0.0108524	0
8923.91	0.00868884	-0.0107455	0
9073.91	0.0087843	-0.0106431	0
9223.91	0.00868884	-0.0106068	0
9373.91	0.00870793	-0.0104586	0
9523.91	0.00868884	-0.0104166	0
9673.91	0.00866975	-0.0103218	0
9823.91	0.00882248	-0.010241	0
9973.91	0.00868884	-0.0101538	0
10123.9	0.00876521	-0.0100857	0
10273.9	0.00863157	-0.00996103	0
10423.9	0.00861248	-0.00989168	0
10573.9	0.00870793	-0.0098236	0
10723.9	0.00865066	-0.00975361	0
10873.9	0.00876521	-0.00969444	0
11023.9	0.00872702	-0.00965945	0
11173.9	0.00870793	-0.00957165	0
11323.9	0.00876521	-0.00950357	0
11473.9	0.00863157	-0.00936296	0
11623.9	0.00872702	-0.00934832	0
11773.9	0.00866975	-0.00921662	0
11923.9	0.00866975	-0.00915045	0
12073.9	0.00866975	-0.00913772	0
12223.9	0.00872702	-0.00902701	0
12373.9	0.00863157	-0.00897866	0
12523.9	0.00868884	-0.00891949	0
12673.9	0.00868884	-0.00880878	0
12823.9	0.00870793	-0.00872034	0
12973.9	0.00880339	-0.00869489	0
13123.9	0.00866975	-0.00859627	0
13273.9	0.00868884	-0.00850528	0
13423.9	0.00874612	-0.00844929	0
13573.9	0.00870793	-0.00836467	0
13723.9	0.00865066	-0.00834813	0
13873.9	0.00863157	-0.00825715	0
14023.9	0.00870793	-0.0081827	0
14173.9	0.00872702	-0.00813753	0
14323.9	0.00874612	-0.00808281	0
14473.9	0.00866975	-0.00805482	0
14623.9	0.00872702	-0.00798865	0
14773.9	0.00865066	-0.00794729	0
14923.9	0.00861248	-0.00788112	0
15073.9	0.00866975	-0.00779904	0
15223.9	0.00870793	-0.00776278	0
15373.9	0.00868884	-0.00771251	0
15523.9	0.00876521	-0.00765716	0
15673.9	0.00872702	-0.00763044	0
15823.9	0.00870793	-0.00762853	0
15973.9	0.00863157	-0.00756045	0
16123.9	0.00868884	-0.00754836	0
16273.9	0.00861248	-0.00751909	0
16423.9	0.00863157	-0.00745865	0
16573.9	0.00874612	-0.00738421	0
16723.9	0.00876521	-0.00736257	0
16873.9	0.00870793	-0.00732058	0
17023.9	0.00872702	-0.00725314	0
17173.9	0.00866975	-0.00725123	0
17323.9	0.00872702	-0.00719842	0
17473.9	0.00861248	-0.00713734	0
17623.9	0.00861248	-0.00714497	0
17773.9	0.00868884	-0.00710044	0
17923.9	0.00874612	-0.00709089	0
18073.9	0.0087843	-0.00702854	0
18223.9	0.00866975	-0.00701518	0
18373.9	0.00870793	-0.00700309	0
18523.9	0.00868884	-0.00694774	0
18673.9	0.0087843	-0.00695792	0
18823.9	0.0087843	-0.00687902	0
18973.9	0.00876521	-0.00684657	0
19123.9	0.00872702	-0.00680649	0
19273.9	0.00872702	-0.00681603	0
19423.9	0.00870793	-0.00675431	0
19573.9	0.00880339	-0.00669578	0
19723.9	0.00865066	-0.0066716	0
19873.9	0.00876521	-0.00668369	0
20023.9	0.0087843	-0.00665442	0
20173.9	0.00868884	-0.00664297	0
20323.9	0.00863157	-0.00661243	0
20473.9	0.00872702	-0.0065978	0
20623.9	0.00872702	-0.00649854	0
20773.9	0.0087843	-0.00647691	0
20923.9	0.00865066	-0.00646609	0
21073.9	0.00870793	-0.006496	0
21223.9	0.00868884	-0.00647754	0
21373.9	0.00874612	-0.00638147	0
21523.9	0.00863157	-0.00635729	0
21673.9	0.00874612	-0.00637065	0
21823.9	0.00865066	-0.0063293	0
21973.9	0.00872702	-0.00633057	0
22123.9	0.00874612	-0.00627903	0
22273.9	0.00870793	-0.0063452	0
22423.9	0.00865066	-0.00631848	0
22573.9	0.00872702	-0.00629558	0
22723.9	0.00865066	-0.00627331	0
22873.9	0.0087843	-0.00625549	0
23023.9	0.00876521	-0.00624977	0
23173.9	0.00874612	-0.00623704	0
23323.9	0.00876521	-0.00619378	0
23473.9	0.00870793	-0.00617914	0
23623.9	0.0087843	-0.00616133	0
23773.9	0.00868884	-0.00615369	0
23923.9	0.00859339	-0.00610152	0
24073.9	0.00872702	-0.00607861	0
24223.9	0.00874612	-0.00605507	0
24373.9	0.00868884	-0.0060258	0
24523.9	0.00874612	-0.00599399	0
24673.9	0.00872702	-0.00594755	0
24823.9	0.00872702	-0.00599972	0
24973.9	0.00863157	-0.0059819	0
25123.9	0.00872702	-0.00593546	0
25273.9	0.00868884	-0.00593673	0
25423.9	0.00866975	-0.00587247	0
25573.9	0.00874612	-0.00584829	0
25723.9	0.00865066	-0.00585083	0
25873.9	0.00874612	-0.00581902	0
26023.9	0.00866975	-0.00580439	0
26173.9	0.00874612	-0.00578912	0
26323.9	0.00874612	-0.00573058	0
26473.9	0.00872702	-0.00577067	0
26623.9	0.00863157	-0.00576112	0
26773.9	0.00872702	-0.00574204	0
26923.9	0.00870793	-0.00572295	0
27073.9	0.00874612	-0.0057045	0
27223.9	0.00872702	-0.00568605	0
27373.9	0.00859339	-0.00566823	0
27523.9	0.00876521	-0.00561924	0
27673.9	0.00882248	-0.00564914	0
27823.9	0.00876521	-0.00559252	0
27973.9	0.00863157	-0.00555752	0
28123.9	0.00872702	-0.00555434	0
28273.9	0.00876521	-0.00555689	0
28423.9	0.00870793	-0.00557979	0
28573.9	0.00859339	-0.00548372	0
28723.9	0.00874612	-0.00548181	0
28873.9	0.00866975	-0.00549899	0
29023.9	0.00872702	-0.00544809	0
29173.9	0.00870793	-0.00544872	0
29323.9	0.00872702	-0.00543472	0
29473.9	0.00872702	-0.00542136	0
29623.9	0.00868884	-0.00543727	0
29773.9	0.00865066	-0.00538192	0
29923.9	0.00865066	-0.00537174	0
30073.9	0.00880339	-0.00535265	0
30223.9	0.00865066	-0.0053202	0
30373.9	0.00870793	-0.00529602	0
30523.9	0.00870793	-0.00530175	0
30673.9	0.00868884	-0.00527566	0
30823.9	0.00874612	-0.0053132	0
30973.9	0.00872702	-0.00521649	0
31123.9	0.00863157	-0.00524321	0
31273.9	0.00876521	-0.00520186	0
31423.9	0.00872702	-0.00519995	0
31573.9	0.00872702	-0.00516241	0
31723.9	0.0087843	-0.00516559	0
31873.9	0.00874612	-0.00511087	0
32023.9	0.00866975	-0.0051325	0
32173.9	0.00874612	-0.00509115	0
32323.9	0.00866975	-0.00500207	0
32473.9	0.00868884	-0.0050377	0
32623.9	0.00870793	-0.00501734	0
32773.9	0.00868884	-0.00496326	0
32923.9	0.00870793	-0.00493208	0
33073.9	0.00876521	-0.00496008	0
33223.9	0.00870793	-0.00490027	0
33373.9	0.00874612	-0.0049289	0
33523.9	0.00872702	-0.00489136	0
33673.9	0.00870793	-0.00485764	0
33823.9	0.00872702	-0.0048621	0
33973.9	0.00870793	-0.00480038	0
34123.9	0.00859339	-0.00478893	0
34273.9	0.00872702	-0.0048201	0
34423.9	0.00868884	-0.00473994	0
34573.9	0.00872702	-0.00478193	0
34723.9	0.00870793	-0.00473612	0
34873.9	0.00866975	-0.00472148	0
35023.9	0.00874612	-0.00467949	0
35173.9	0.00868884	-0.00470685	0
35323.9	0.00870793	-0.00466104	0
35473.9	0.00876521	-0.00461905	0
35623.9	0.00868884	-0.00463177	0
35773.9	0.00868884	-0.00458596	0
35923.9	0.00861248	-0.00460887	0
36073.9	0.00882248	-0.00460123	0
36223.9	0.00868884	-0.00457069	0
36373.9	0.00865066	-0.00456942	0
36523.9	0.00872702	-0.00453061	0
36673.9	0.00861248	-0.00456524	0
36823.9	0.00870793	-0.00454678	0
36973.9	0.00874612	-0.0045303	0
37123.9	0.00870793	-0.00452279	0
37273.9	0.00880339	-0.00449924	0
37423.9	0.00866975	-0.00449275	0
37573.9	0.00876521	-0.00448492	0
37723.9	0.00870793	-0.00447455	0
37873.9	0.00865066	-0.00446411	0
38023.9	0.00874612	-0.00443624	0
38173.9	0.00866975	-0.00444184	0
38323.9	0.00863157	-0.00441123	0
38473.9	0.00868884	-0.00440009	0
38623.9	0.00866975	-0.00438832	0
38773.9	0.00876521	-0.00436846	0
38923.9	0.00870793	-0.00435121	0
39073.9	0.00876521	-0.00433129	0
39223.9	0.00876521	-0.0043262	0
39373.9	0.00866975	-0.00430984	0
39523.9	0.00880339	-0.00430405	0
39673.9	0.00872702	-0.00426771	0
39823.9	0.00863157	-0.00426886	0
39973.9	0.0087843	-0.00426237	0
40123.9	0.00874612	-0.00424455	0
40273.9	0.00874612	-0.00422615	0
40423.9	0.0087843	-0.00422355	0
40573.9	0.00870793	-0.00420668	0
40723.9	0.00876521	-0.00418969	0
40873.9	0.00870793	-0.00417702	0
41023.9	0.00865066	-0.00415965	0
41173.9	0.00874612	-0.00414106	0
41323.9	0.00866975	-0.00413858	0
41473.9	0.00876521	-0.00412433	0
41623.9	0.00868884	-0.00415277	0
41773.9	0.00865066	-0.00407679	0
41923.9	0.00865066	-0.00408289	0
42073.9	0.00865066	-0.0040659	0
42223.9	0.00870793	-0.00404312	0
42373.9	0.00880339	-0.00402676	0
42523.9	0.00876521	-0.00400882	0
42673.9	0.00870793	-0.00399882	0
42823.9	0.00884157	-0.00398425	0
42973.9	0.00874612	-0.00398056	0
43123.9	0.00876521	-0.00395956	0
43222.3	0.00870793	-0.00393334	0