Folder: MASTER-THESIS/EXPERIMENTAL/Data/Battery-cycling/JP-measurements/T-cell (part 3)

File: 2024-04-23_JP-A3-02_T-cell_Li-Cu_1-mm-PP-spacer_75muL-4MLiFSI-DME_inside-glovebox_added-OCV-0.1s_02_MB_C10.txt
time/s	Ewe/V	I/mA	error
60.053	2.77806	-0.0250155	0
60.1432	0.00861248	-8.89762	0
60.144	0.00853611	-8.84467	0
60.1448	0.00859339	-8.79101	0
60.1456	0.00874612	-8.73927	0
60.1464	0.0085743	-8.68688	0
60.1472	0.00866975	-8.63476	0
60.148	0.00855521	-8.58244	0
60.1488	0.00859339	-8.53121	0
60.1496	0.00855521	-8.47984	0
60.1504	0.00855521	-8.42963	0
60.1512	0.00872702	-8.37935	0
60.1522	0.00866975	-8.31671	0
60.1532	0.00868884	-8.2563	0
60.1542	0.00859339	-8.19461	0
60.1552	0.00865066	-8.13433	0
60.1562	0.00855521	-8.07462	0
60.1572	0.00870793	-8.01567	0
60.1582	0.0085743	-7.95698	0
60.1592	0.00855521	-7.8988	0
60.1602	0.00865066	-7.84279	0
60.1612	0.00859339	-7.78632	0
60.1622	0.00866975	-7.72993	0
60.1632	0.00870793	-7.67538	0
60.1642	0.00855521	-7.62077	0
60.1652	0.00863157	-7.56705	0
60.1662	0.00872702	-7.51339	0
60.1672	0.00866975	-7.46082	0
60.1682	0.00853611	-7.40856	0
60.1692	0.00861248	-7.35612	0
60.1702	0.00863157	-7.30508	0
60.1712	0.00870793	-7.25454	0
60.1724	0.00853611	-7.19528	0
60.1734	0.00855521	-7.14525	0
60.1746	0.00855521	-7.08714	0
60.1758	0.00870793	-7.02972	0
60.177	0.0085743	-6.97281	0
60.1782	0.00865066	-6.91597	0
60.1794	0.00861248	-6.8606	0
60.1806	0.00859339	-6.80554	0
60.1818	0.0085743	-6.75092	0
60.183	0.0085743	-6.69727	0
60.1842	0.00861248	-6.64565	0
60.1854	0.00851702	-6.59244	0
60.1866	0.00859339	-6.54089	0
60.1878	0.00865066	-6.48927	0
60.189	0.0085743	-6.43855	0
60.1904	0.00865066	-6.38088	0
60.1918	0.00863157	-6.32301	0
60.1932	0.00855521	-6.26655	0
60.1946	0.00859339	-6.21041	0
60.196	0.00855521	-6.15472	0
60.1974	0.00861248	-6.10068	0
60.1988	0.00863157	-6.04804	0
60.2002	0.00870793	-5.99432	0
60.2016	0.00863157	-5.94156	0
60.203	0.00849793	-5.89039	0
60.2044	0.00870793	-5.83941	0
60.2058	0.00870793	-5.78913	0
60.2074	0.0085743	-5.73279	0
60.209	0.00859339	-5.67684	0
60.2106	0.00863157	-5.6223	0
60.2122	0.0085743	-5.56864	0
60.2138	0.0085743	-5.51575	0
60.2154	0.00849793	-5.46381	0
60.217	0.00866975	-5.41188	0
60.2188	0.00861248	-5.3558	0
60.2206	0.0085743	-5.30029	0
60.2224	0.00861248	-5.24524	0
60.2242	0.00866975	-5.1919	0
60.226	0.00859339	-5.13945	0
60.2278	0.00861248	-5.08815	0
60.2296	0.00865066	-5.03711	0
60.2316	0.00861248	-4.98294	0
60.2336	0.00868884	-4.92859	0
60.2356	0.00870793	-4.87652	0
60.2376	0.00866975	-4.82523	0
60.2396	0.00865066	-4.77495	0
60.2418	0.00868884	-4.71982	0
60.244	0.00865066	-4.66712	0
60.2462	0.00866975	-4.61621	0
60.2484	0.00859339	-4.56529	0
60.2508	0.00851702	-4.5124	0
60.2532	0.0085743	-4.46015	0
60.2556	0.00868884	-4.40821	0
60.2582	0.00865066	-4.35475	0
60.2608	0.00855521	-4.30275	0
60.2634	0.00865066	-4.2524	0
60.2662	0.00865066	-4.19836	0
60.269	0.00865066	-4.14764	0
60.2718	0.00859339	-4.09723	0
60.2748	0.0085743	-4.04504	0
60.278	0.00847884	-3.99113	0
60.2812	0.00866975	-3.93964	0
60.2844	0.00865066	-3.88892	0
60.2878	0.00866975	-3.83717	0
60.2912	0.00859339	-3.78683	0
60.2948	0.00872702	-3.73528	0
60.2986	0.00855521	-3.68347	0
60.3024	0.00855521	-3.63293	0
60.3064	0.00868884	-3.58081	0
60.3106	0.00853611	-3.52951	0
60.3148	0.00859339	-3.47949	0
60.3192	0.00861248	-3.42902	0
60.3238	0.00863157	-3.37835	0
60.3286	0.00870793	-3.32655	0
60.3336	0.00863157	-3.27627	0
60.3388	0.00855521	-3.22541	0
60.3442	0.00861248	-3.17494	0
60.3498	0.00861248	-3.12454	0
60.3556	0.00865066	-3.07426	0
60.3616	0.00859339	-3.02417	0
60.3682	0.0085743	-2.97287	0
60.3748	0.00859339	-2.92285	0
60.3818	0.00859339	-2.87238	0
60.3892	0.00863157	-2.82089	0
60.397	0.00855521	-2.77016	0
60.4052	0.00853611	-2.71925	0
60.4136	0.00866975	-2.6691	0
60.4224	0.00865066	-2.61888	0
60.4318	0.00859339	-2.56873	0
60.4418	0.00855521	-2.51788	0
60.4522	0.00866975	-2.4676	0
60.463	0.0085743	-2.41745	0
60.4748	0.00855521	-2.36679	0
60.4872	0.00863157	-2.31613	0
60.5002	0.00865066	-2.26508	0
60.5142	0.00874612	-2.2148	0
60.5288	0.00866975	-2.16427	0
60.5446	0.00861248	-2.1131	0
60.5614	0.00865066	-2.06276	0
60.5788	0.00859339	-2.01254	0
60.5976	0.00865066	-1.96213	0
60.618	0.00855521	-1.91115	0
60.6394	0.00855521	-1.86043	0
60.6628	0.00866975	-1.81034	0
60.6872	0.00861248	-1.76019	0
60.714	0.00865066	-1.70953	0
60.7422	0.00866975	-1.65868	0
60.7736	0.00863157	-1.60859	0
60.8064	0.00865066	-1.55825	0
60.8426	0.00851702	-1.50822	0
60.882	0.00855521	-1.45775	0
60.925	0.00861248	-1.40728	0
60.9712	0.00853611	-1.35618	0
61.023	0.00863157	-1.30615	0
61.0788	0.00863157	-1.256	0
61.1402	0.00847884	-1.20553	0
61.2092	0.00859339	-1.15544	0
61.2844	0.00859339	-1.10535	0
61.3698	0.00855521	-1.05495	0
61.4654	0.00853611	-1.0048	0
61.5714	0.00859339	-0.954391	0
61.6928	0.00855521	-0.904303	0
61.832	0.00861248	-0.854152	0
61.9938	0.00861248	-0.803682	0
62.18	0.00845975	-0.753212	0
62.4024	0.00866975	-0.702933	0
62.6666	0.00872702	-0.652845	0
62.984	0.00868884	-0.602821	0
63.3782	0.00863157	-0.55267	0
63.87	0.00855521	-0.502646	0
64.5128	0.00863157	-0.452494	0
65.0528	0.00868884	-0.424073	0
65.0534	0.00865066	-0.423666	0
66.1222	0.00866975	-0.373638	0
67.6664	0.00859339	-0.323584	0
70.0496	0.00853611	-0.273531	0
74.1142	0.00859339	-0.223528	0
81.9748	0.00865066	-0.173519	0
91.9748	0.0085743	-0.142173	0
101.975	0.0085743	-0.123758	0
111.975	0.00863157	-0.111515	0
121.975	0.00865066	-0.102696	0
131.975	0.00861248	-0.0960268	0
141.975	0.0085743	-0.0905798	0
151.975	0.00863157	-0.0863164	0
161.975	0.00868884	-0.0825303	0
171.975	0.00866975	-0.0793041	0
181.975	0.0085743	-0.0766506	0
191.975	0.00870793	-0.0741053	0
201.975	0.00866975	-0.0720436	0
211.975	0.00863157	-0.0698292	0
221.975	0.00866975	-0.0680729	0
231.975	0.00866975	-0.0663293	0
241.975	0.00865066	-0.0648531	0
251.975	0.00865066	-0.0632686	0
261.975	0.00859339	-0.0619514	0
271.975	0.00868884	-0.0610096	0
281.975	0.00865066	-0.0595652	0
291.975	0.00865066	-0.0585216	0
301.975	0.00865066	-0.0575417	0
311.975	0.00865066	-0.0566317	0
321.975	0.00865066	-0.0555181	0
331.975	0.00872702	-0.0547482	0
341.975	0.00861248	-0.05394	0
351.975	0.00880339	-0.0531446	0
361.975	0.00870793	-0.0522665	0
371.975	0.00866975	-0.0516365	0
381.975	0.00865066	-0.0508347	0
391.975	0.00859339	-0.0503702	0
401.975	0.00851702	-0.0495303	0
411.975	0.00866975	-0.0488558	0
421.975	0.00861248	-0.0484931	0
431.975	0.00853611	-0.0477995	0
441.975	0.00853611	-0.0473731	0
451.975	0.00849793	-0.0467941	0
461.975	0.0085743	-0.0463041	0
471.975	0.00872702	-0.045725	0
481.975	0.0085743	-0.0450887	0
491.975	0.00868884	-0.0451949	0
501.975	0.00861248	-0.0447507	0
511.975	0.00861248	-0.0442316	0
521.975	0.00866975	-0.0438091	0
531.975	0.00866975	-0.0435075	0
541.975	0.0085743	-0.0431487	0
551.975	0.00866975	-0.0426206	0
561.975	0.00868884	-0.042214	0
571.975	0.00859339	-0.0419557	0
581.975	0.00859339	-0.0416197	0
591.975	0.00861248	-0.0412119	0
601.975	0.00865066	-0.040918	0
611.975	0.00872702	-0.040589	0
621.975	0.00874612	-0.0401207	0
631.975	0.00861248	-0.0398249	0
641.975	0.00868884	-0.0395952	0
649.891	0.00853611	-0.0391854	0
649.892	0.00872702	-0.0392153	0

File: 2024-04-23_JP-A3-02_T-cell_Li-Cu_1-mm-PP-spacer_75muL-4MLiFSI-DME_inside-glovebox_added-OCV-0.1s_04_CP_C10.txt
time/s	Ewe/V	I/mA	error
650.094	-0.137676	-1.94336	0
650.095	-0.199574	-1.95975	0
650.095	-0.219486	-1.95982	0
650.096	-0.235294	-1.95977	0
650.096	-0.24881	-1.9598	0
650.096	-0.260589	-1.95984	0
650.097	-0.27128	-1.95979	0
650.097	-0.281112	-1.95979	0
650.098	-0.290142	-1.9598	0
650.098	-0.298447	-1.95986	0
650.098	-0.306045	-1.9599	0
650.099	-0.313376	-1.95985	0
650.099	-0.320077	-1.95983	0
650.1	-0.326396	-1.95985	0
650.1	-0.332429	-1.95983	0
650.1	-0.338137	-1.95986	0
650.101	-0.343387	-1.95985	0
650.101	-0.34858	-1.95988	0
650.102	-0.353353	-1.95989	0
650.102	-0.357934	-1.95988	0
650.102	-0.362134	-1.95985	0
650.103	-0.366373	-1.95986	0
650.103	-0.370382	-1.95993	0
650.104	-0.374047	-1.95991	0
650.104	-0.377732	-1.95992	0
650.104	-0.38113	-1.95987	0
650.105	-0.384356	-1.95988	0
650.105	-0.387564	-1.95992	0
650.106	-0.390504	-1.95988	0
650.106	-0.393253	-1.95988	0
650.106	-0.396059	-1.95989	0
650.107	-0.398598	-1.9599	0
650.107	-0.40108	-1.95984	0
650.108	-0.403524	-1.95985	0
650.108	-0.405929	-1.95991	0
650.108	-0.408067	-1.95992	0
650.109	-0.411389	-1.9599	0
650.11	-0.415131	-1.95995	0
650.11	-0.417823	-1.95995	0
650.111	-0.421317	-1.95985	0
650.112	-0.424543	-1.95993	0
650.113	-0.427216	-1.96	0
650.114	-0.429946	-1.95993	0
650.114	-0.43237	-1.95998	0
650.115	-0.434528	-1.95986	0
650.116	-0.437028	-1.95992	0
650.117	-0.439472	-1.95993	0
650.119	-0.441916	-1.95991	0
650.122	-0.444169	-1.95997	0
650.125	-0.441973	-1.95991	0
650.126	-0.43972	-1.95988	0
650.127	-0.437601	-1.9599	0
650.127	-0.435368	-1.95993	0
650.128	-0.432619	-1.95995	0
650.129	-0.42985	-1.96	0
650.13	-0.427044	-1.95986	0
650.131	-0.423951	-1.95996	0
650.131	-0.420916	-1.95988	0
650.132	-0.417842	-1.95993	0
650.133	-0.414845	-1.95999	0
650.134	-0.412096	-1.95997	0
650.135	-0.409194	-1.96002	0
650.135	-0.406407	-1.95996	0
650.136	-0.403867	-1.95989	0
650.137	-0.401233	-1.95993	0
650.138	-0.398808	-1.95993	0
650.139	-0.396613	-1.95986	0
650.139	-0.39436	-1.95996	0
650.14	-0.392184	-1.95993	0
650.141	-0.389339	-1.95993	0
650.142	-0.386896	-1.95987	0
650.144	-0.384433	-1.95992	0
650.145	-0.381951	-1.95988	0
650.146	-0.379698	-1.95992	0
650.147	-0.377655	-1.95998	0
650.149	-0.375193	-1.95997	0
650.15	-0.372864	-1.95988	0
650.152	-0.370706	-1.95993	0
650.154	-0.36832	-1.95995	0
650.156	-0.366086	-1.95995	0
650.159	-0.363948	-1.95988	0
650.161	-0.361753	-1.95997	0
650.165	-0.359519	-1.95995	0
650.169	-0.357247	-1.95988	0
650.174	-0.355166	-1.95994	0
650.181	-0.353047	-1.95994	0
650.192	-0.350966	-1.95995	0
650.221	-0.348885	-1.95991	0
650.347	-0.350928	-1.95994	0
650.83	-0.348904	-1.95997	0
650.996	-0.346862	-1.9599	0
651.154	-0.344704	-1.95995	0
651.321	-0.342643	-1.95992	0
651.487	-0.340619	-1.95992	0
651.654	-0.338595	-1.95992	0
651.841	-0.336533	-1.9599	0
652.041	-0.334376	-1.95995	0
652.263	-0.332314	-1.9599	0
652.494	-0.330291	-1.95991	0
652.741	-0.328267	-1.95997	0
653.034	-0.326224	-1.95994	0
653.346	-0.324182	-1.95999	0
653.704	-0.322139	-1.95997	0
654.081	-0.320115	-1.95992	0
654.568	-0.318072	-1.95996	0
655.119	-0.31603	-1.95996	0
655.8	-0.31393	-1.95993	0
656.683	-0.311868	-1.95993	0
657.891	-0.309844	-1.95991	0
659.882	-0.307782	-1.95995	0
667.48	-0.307801	-1.95994	0
672.01	-0.309863	-1.95998	0
675.715	-0.311906	-1.95988	0
678.73	-0.313949	-1.95993	0
681.886	-0.315972	-1.95988	0
684.794	-0.318034	-1.96	0
687.753	-0.320058	-1.95997	0
690.572	-0.322082	-1.95993	0
693.434	-0.324105	-1.96	0
696.252	-0.326148	-1.96	0
699.097	-0.32821	-1.95991	0
702.044	-0.330233	-1.95994	0
704.925	-0.332276	-1.95991	0
707.864	-0.334338	-1.95994	0
710.875	-0.336362	-1.95993	0
713.87	-0.338442	-1.95995	0
716.939	-0.340466	-1.95996	0
720.017	-0.342528	-1.95997	0
723.197	-0.344552	-1.95992	0
726.312	-0.346575	-1.95994	0
729.507	-0.348618	-1.9599	0
732.77	-0.350661	-1.95992	0
736.116	-0.352761	-1.95995	0
739.513	-0.354784	-1.95997	0
742.826	-0.356808	-1.95991	0
746.203	-0.358851	-1.95991	0
749.717	-0.360874	-1.95998	0
753.054	-0.362917	-1.95992	0
756.452	-0.36496	-1.95993	0
759.989	-0.366984	-1.95989	0
763.394	-0.369007	-1.95998	0
766.789	-0.371031	-1.95999	0
770.207	-0.373093	-1.95994	0
773.704	-0.375155	-1.95997	0
777.077	-0.377197	-1.95993	0
780.484	-0.37924	-1.95994	0
783.734	-0.381264	-1.95995	0
787.04	-0.383325	-1.95998	0
790.31	-0.385406	-1.95993	0
793.589	-0.387468	-1.95996	0
796.764	-0.389511	-1.95993	0
799.858	-0.391535	-1.95997	0
802.975	-0.393558	-1.95991	0
806.023	-0.395582	-1.95999	0
808.979	-0.397606	-1.95993	0
811.875	-0.399629	-1.9599	0
814.869	-0.40171	-1.95996	0
817.757	-0.403772	-1.95999	0
820.546	-0.405796	-1.95999	0
823.343	-0.407877	-1.95994	0
826.153	-0.409919	-1.95996	0
828.763	-0.411943	-1.95995	0
830.094	-0.413069	-1.95994	0

File: 2024-04-25_JP-A1-02_T-cell_Li-Cu_1-mm-PP-spacer_75muL-4MLiFSI-DME_inside-glovebox_added-OCV-0.1s_02_MB_C05.txt
time/s	Ewe/V	I/mA	error
60.053	2.9357	-0.0250364	0
60.1932	0.00852017	-3.30082	0
60.4036	0.00848196	-1.61841	0
107.413	0.00846286	-0.11626	0
437.413	0.00852017	-0.0509363	0
767.413	0.00852017	-0.039337	0
1097.41	0.00842465	-0.0332397	0
1427.41	0.00842465	-0.0291498	0
1757.41	0.00844375	-0.0263447	0
2087.41	0.00846286	-0.0239827	0
2417.41	0.00855838	-0.0222694	0
2747.41	0.00842465	-0.020863	0
3077.41	0.00848196	-0.019796	0
3407.41	0.00852017	-0.0187659	0
3737.41	0.00842465	-0.0178573	0
4067.41	0.00842465	-0.0170812	0
4397.41	0.00844375	-0.0165732	0
4727.41	0.00846286	-0.0158525	0
5057.41	0.00848196	-0.0153094	0
5387.41	0.00842465	-0.0150777	0
5717.41	0.00855838	-0.0145925	0
6047.41	0.00832912	-0.0141813	0
6377.41	0.00853928	-0.0137668	0
6707.41	0.00852017	-0.0133905	0
7037.41	0.00852017	-0.0130168	0
7367.41	0.00855838	-0.0126813	0
7697.41	0.00846286	-0.0123897	0
8027.41	0.00852017	-0.0120434	0
8357.41	0.00844375	-0.0118778	0
8687.41	0.00857749	-0.0116149	0
9017.41	0.00846286	-0.0113717	0
9347.41	0.00855838	-0.0110654	0
9677.41	0.00842465	-0.0108592	0
10007.4	0.00844375	-0.0106446	0
10337.4	0.00842465	-0.0103887	0
10667.4	0.00836733	-0.0101486	0
10997.4	0.00846286	-0.010036	0
11327.4	0.00846286	-0.00987489	0
11657.4	0.00853928	-0.00973737	0
11987.4	0.00853928	-0.0096043	0
12317.4	0.00850107	-0.00937765	0
12647.4	0.00859659	-0.00927642	0
12977.4	0.00844375	-0.00909689	0
13307.4	0.00857749	-0.00892944	0
13637.4	0.00848196	-0.00883904	0
13967.4	0.00846286	-0.00854235	0
14297.4	0.00857749	-0.00845131	0
14627.4	0.00855838	-0.00833226	0
14957.4	0.00850107	-0.00822275	0
15287.4	0.00844375	-0.00805276	0
15617.4	0.00842465	-0.00799928	0
15947.4	0.00850107	-0.00791333	0
16277.4	0.00853928	-0.00778536	0
16607.4	0.00850107	-0.00770451	0
16937.4	0.00842465	-0.0076765	0
17267.4	0.00846286	-0.00760073	0
17597.4	0.00850107	-0.00750969	0
17927.4	0.00848196	-0.00739509	0
18257.4	0.00844375	-0.00732315	0
18587.4	0.00846286	-0.00726203	0
18917.4	0.00852017	-0.0071678	0
19247.4	0.00848196	-0.00710414	0
19577.4	0.00846286	-0.00708504	0
19907.4	0.00846286	-0.00683992	0
20237.4	0.00850107	-0.00682655	0
20567.4	0.00844375	-0.00675779	0
20897.4	0.00844375	-0.00672405	0
21227.4	0.00855838	-0.0066311	0
21557.4	0.00844375	-0.0065929	0
21887.4	0.00840554	-0.00649231	0
22217.4	0.00852017	-0.00643437	0
22547.4	0.00848196	-0.00632232	0
22877.4	0.00842465	-0.00630131	0
23207.4	0.00842465	-0.00627966	0
23537.4	0.00853928	-0.00619371	0
23867.4	0.00838644	-0.00616252	0
24197.4	0.00848196	-0.00610458	0
24527.4	0.00846286	-0.00602181	0
24857.4	0.00836733	-0.00598871	0
25187.4	0.00848196	-0.00593268	0
25517.4	0.00836733	-0.00587793	0
25847.4	0.00846286	-0.00577288	0
26177.4	0.00850107	-0.00572322	0
26507.4	0.00842465	-0.00567674	0
26837.4	0.00840554	-0.00561117	0
27167.4	0.00846286	-0.00558888	0
27497.4	0.00844375	-0.00558252	0
27827.4	0.00840554	-0.00548829	0
28157.4	0.00852017	-0.00543609	0
28487.4	0.00840554	-0.00536287	0
28817.4	0.00842465	-0.00539661	0
29147.4	0.00848196	-0.00534313	0
29477.4	0.00840554	-0.0053425	0
29807.4	0.00842465	-0.00526546	0
30137.4	0.00838644	-0.00523044	0
30467.4	0.00831002	-0.0052037	0
30797.4	0.00848196	-0.0051324	0
31127.4	0.00838644	-0.00512412	0
31457.4	0.00855838	-0.00508147	0
31787.4	0.00844375	-0.00503372	0
32117.4	0.00844375	-0.00501271	0
32447.4	0.00855838	-0.00494458	0
32777.4	0.00852017	-0.00493694	0
33107.4	0.00848196	-0.00479624	0
33437.4	0.00844375	-0.00483126	0
33767.4	0.00848196	-0.00476759	0
34097.4	0.00848196	-0.00477141	0
34427.4	0.00838644	-0.00472939	0
34757.4	0.00853928	-0.00470329	0
35087.4	0.00842465	-0.00470647	0
35417.4	0.00842465	-0.00468801	0
35747.4	0.00844375	-0.00464026	0
36077.4	0.00842465	-0.0045906	0
36407.4	0.00842465	-0.00454667	0
36737.4	0.00859659	-0.00446963	0
37067.4	0.00842465	-0.00451574	0
37397.4	0.00844375	-0.00448237	0
37727.4	0.00840554	-0.00441429	0
38057.4	0.00840554	-0.00438066	0
38387.4	0.00853928	-0.00435691	0
38717.4	0.00850107	-0.0043157	0
39047.4	0.00857749	-0.004278	0
39377.4	0.00850107	-0.00425157	0
39707.4	0.00840554	-0.00422757	0
40037.4	0.00842465	-0.00419897	0
40367.4	0.00846286	-0.00414739	0
40697.4	0.00844375	-0.00416089	0
41027.4	0.00846286	-0.00411522	0
41357.4	0.00852017	-0.00409325	0
41687.4	0.00840554	-0.00404918	0
42017.4	0.00844375	-0.00402887	0
42347.4	0.00842465	-0.00400683	0
42677.4	0.00844375	-0.00396849	0
43007.4	0.00850107	-0.00392977	0
43337.4	0.00855838	-0.00391557	0
43667.4	0.00836733	-0.00390303	0
43997.4	0.00846286	-0.00389226	0
44327.4	0.00838644	-0.00385443	0
44657.4	0.00846286	-0.00383055	0
44987.4	0.00842465	-0.00380234	0
45317.4	0.00842465	-0.0037861	0
45647.4	0.00836733	-0.003747	0
45977.4	0.00842465	-0.00372363	0
46307.4	0.00848196	-0.00372439	0
46637.4	0.00846286	-0.0037014	0
46967.4	0.00846286	-0.00366064	0
47297.4	0.00848196	-0.00363466	0
47627.4	0.00846286	-0.00364262	0
47957.4	0.00842465	-0.00361046	0
48287.4	0.00834823	-0.0035797	0
48617.4	0.00853928	-0.00355002	0
48947.4	0.00850107	-0.00353926	0
49277.4	0.00840554	-0.00351569	0
49607.4	0.00842465	-0.00348411	0
49937.4	0.00848196	-0.00337667	0
50267.4	0.00852017	-0.00339425	0
50597.4	0.00842465	-0.00338902	0
50927.4	0.00842465	-0.00336629	0
51257.4	0.00846286	-0.00334712	0
51587.4	0.00842465	-0.00333719	0
51917.4	0.00842465	-0.00329719	0
52247.4	0.00836733	-0.0032821	0
52577.4	0.00850107	-0.00328694	0
52907.4	0.00846286	-0.00324452	0
53237.4	0.00857749	-0.00326828	0
53567.4	0.00850107	-0.00322924	0
53897.4	0.00840554	-0.00322211	0
54227.4	0.00842465	-0.00320109	0
54557.4	0.00844375	-0.00317963	0
54887.4	0.00844375	-0.00316855	0
55217.4	0.00853928	-0.00315734	0
55547.4	0.00840554	-0.00313753	0
55877.4	0.00852017	-0.00311104	0
56207.4	0.00846286	-0.00308678	0
56537.4	0.00850107	-0.00309951	0
56867.4	0.00848196	-0.00307245	0
57197.4	0.00846286	-0.00309321	0
57527.4	0.00846286	-0.00304895	0
57857.4	0.00853928	-0.00303761	0
58187.4	0.00855838	-0.00301698	0
58517.4	0.00853928	-0.00298488	0
58847.4	0.00844375	-0.00297017	0
59177.4	0.00842465	-0.00294011	0
59507.4	0.00850107	-0.00293928	0
59837.4	0.00838644	-0.00290591	0
60167.4	0.00857749	-0.0028982	0
60497.4	0.00834823	-0.00289782	0
60827.4	0.00848196	-0.00289406	0
61157.4	0.00853928	-0.00286725	0
61487.4	0.00848196	-0.0028556	0
61817.4	0.00846286	-0.00283719	0
62147.4	0.00846286	-0.00283305	0
62477.4	0.00842465	-0.00281204	0
62807.4	0.00840554	-0.00280955	0
63137.4	0.00840554	-0.0028021	0
63467.4	0.00844375	-0.0027937	0
63797.4	0.00844375	-0.00278701	0
64127.4	0.00850107	-0.0027595	0
64457.4	0.00857749	-0.00277001	0
64787.4	0.00844375	-0.00274784	0
65117.4	0.00853928	-0.00273855	0
65447.4	0.00844375	-0.00273396	0
65777.4	0.00844375	-0.00276873	0
66107.4	0.00855838	-0.0027339	0
66437.4	0.00836733	-0.00270925	0
66767.4	0.00852017	-0.00268715	0
67097.4	0.00848196	-0.00267327	0
67427.4	0.00842465	-0.00269893	0
67757.5	0.00848196	-0.00266639	0
68087.5	0.00842465	-0.00266461	0
68417.5	0.00846286	-0.0026634	0
68747.5	0.00852017	-0.00265474	0
69077.5	0.00848196	-0.00266136	0
69407.5	0.00855838	-0.00267289	0
69737.5	0.00848196	-0.00265461	0
70067.5	0.00840554	-0.00270053	0
70397.5	0.00848196	-0.00269352	0
70727.5	0.00848196	-0.00267244	0
71057.5	0.00846286	-0.00268002	0
71387.5	0.00853928	-0.00266009	0
71717.5	0.00846286	-0.00264206	0
72047.5	0.00840554	-0.00264888	0
72377.5	0.00857749	-0.00264276	0
72707.6	0.00832912	-0.0026399	0
73037.6	0.00850107	-0.00263162	0
73367.6	0.00853928	-0.00261812	0
73697.6	0.00848196	-0.00259334	0
74027.6	0.00848196	-0.00258214	0
74357.6	0.00853928	-0.00259194	0
74687.6	0.00842465	-0.00256169	0
75017.6	0.00855838	-0.00255991	0
75347.6	0.00850107	-0.00254787	0
75677.6	0.00848196	-0.00253577	0
76007.6	0.00848196	-0.00253628	0
76337.6	0.00848196	-0.00253042	0
76667.6	0.00853928	-0.00250329	0
76997.6	0.00846286	-0.00249737	0
77327.6	0.00852017	-0.00248018	0
77657.7	0.00848196	-0.00247285	0
77987.7	0.00846286	-0.00246496	0
78317.7	0.00853928	-0.00245075	0
78647.7	0.00846286	-0.00246304	0
78977.7	0.00850107	-0.00245508	0
79307.7	0.00848196	-0.00245559	0
79637.7	0.00852017	-0.00244241	0
79967.7	0.00846286	-0.00246642	0
80297.7	0.00848196	-0.00246164	0
80627.7	0.00853928	-0.00247011	0
80957.7	0.00850107	-0.00244413	0
81287.7	0.00852017	-0.0024498	0
81617.7	0.00842465	-0.00244827	0
81947.7	0.00850107	-0.00243127	0
82277.7	0.00852017	-0.00243942	0
82607.7	0.00848196	-0.00242585	0
82937.8	0.00853928	-0.00241885	0
83267.8	0.00855838	-0.00242331	0
83597.8	0.00853928	-0.00241776	0
83927.8	0.00852017	-0.00240407	0
84257.8	0.00852017	-0.00239904	0
84587.8	0.00852017	-0.00239013	0
84917.8	0.00846286	-0.00238433	0
85247.8	0.00852017	-0.00239038	0
85577.8	0.00848196	-0.00236058	0
85907.8	0.00855838	-0.00235191	0
86237.8	0.00844375	-0.00234701	0
86567.8	0.00848196	-0.0023316	0
86897.8	0.00853928	-0.00232236	0
87227.8	0.00852017	-0.00231663	0
87557.8	0.00846286	-0.00230606	0
87887.9	0.00846286	-0.00230536	0
88217.9	0.00857749	-0.00229281	0
88547.9	0.00846286	-0.00229352	0
88877.9	0.00855838	-0.00229734	0
89207.9	0.00842465	-0.00227282	0
89537.9	0.00844375	-0.00227059	0
89867.9	0.00850107	-0.00226155	0
90197.9	0.00848196	-0.00225257	0
90527.9	0.00853928	-0.00222926	0
90857.9	0.00852017	-0.00224212	0
91187.9	0.00848196	-0.0022213	0
91517.9	0.00848196	-0.00222448	0
91847.9	0.00850107	-0.00221697	0
92177.9	0.00853928	-0.00219531	0
92507.9	0.00848196	-0.00220862	0
92838	0.00848196	-0.00220684	0
93168	0.00846286	-0.00219378	0
93498	0.00842465	-0.00218907	0
93828	0.00848196	-0.00216258	0
94158	0.00846286	-0.00215901	0
94488	0.00848196	-0.0021301	0
94818	0.00846286	-0.00213532	0
95148	0.00850107	-0.00213564	0
95478	0.00857749	-0.0021194	0
95808	0.00855838	-0.00211908	0
96138	0.00848196	-0.00213347	0
96468	0.00857749	-0.0021045	0
96798	0.00840554	-0.00208762	0
97128	0.00838644	-0.00208374	0
97458	0.00850107	-0.0020887	0
97709.7	0.00842465	-0.00197019	0