Folder: MASTER-THESIS/EXPERIMENTAL/Data/Battery-cycling/JP-measurements/T-cell (part 4)

File: 2024-04-25_JP-A1-02_T-cell_Li-Cu_1-mm-PP-spacer_75muL-4MLiFSI-DME_inside-glovebox_added-OCV-0.1s_04_CP_C05.txt
time/s	Ewe/V	I/mA	error
97709.9	0.011711	-0.0194649	0
97709.9	-0.00239198	-0.0195776	0
97709.9	-0.00999583	-0.0195891	0
97709.9	-0.0175042	-0.0195897	0
97709.9	-0.0249169	-0.0195891	0
97709.9	-0.0323106	-0.0195929	0
97710	-0.0398763	-0.0195903	0
97710	-0.0472126	-0.0195859	0
97710.1	-0.0546254	-0.0195865	0
97710.2	-0.0619427	-0.0195871	0
97710.2	-0.0691262	-0.0195878	0
97710.3	-0.0763671	-0.0195916	0
97710.4	-0.0836653	-0.0195859	0
97710.5	-0.0910016	-0.0195973	0
97710.7	-0.0983189	-0.0195903	0
97710.9	-0.105655	-0.0195878	0
97711.1	-0.113011	-0.0195903	0
97711.3	-0.120156	-0.0195903	0
97712.2	-0.12113	-0.0195891	0
97712.5	-0.113851	-0.0195929	0
97712.7	-0.106534	-0.0195827	0
97713	-0.0992551	-0.0195846	0
97713.3	-0.0919187	-0.0195942	0
97713.6	-0.0847925	-0.0195916	0
97714.1	-0.0773797	-0.0195891	0
97714.7	-0.070177	-0.0195852	0
97715.7	-0.0628598	-0.0195871	0
97717.5	-0.0555807	-0.0195903	0
97722.6	-0.0482825	-0.0195865	0
97746.2	-0.0411563	-0.0195884	0
97807.5	-0.0344122	-0.0195884	0
97877.5	-0.031833	-0.0195916	0
97947.5	-0.0307631	-0.0195922	0
98017.5	-0.0302855	-0.0195916	0
98087.5	-0.0301327	-0.0195942	0
98157.5	-0.0299416	-0.0195935	0
98227.5	-0.0295786	-0.0195935	0
98297.5	-0.0296359	-0.0195948	0
98367.5	-0.0295595	-0.0195897	0
98437.5	-0.0293493	-0.0195871	0
98507.5	-0.0293493	-0.0195852	0
98577.5	-0.0293493	-0.0195878	0
98647.5	-0.0292729	-0.0195891	0
98717.5	-0.0293111	-0.019591	0
98787.5	-0.0291392	-0.0195897	0
98857.5	-0.029101	-0.0195865	0
98927.5	-0.0290437	-0.0195865	0
98997.5	-0.0290246	-0.0195897	0
99067.5	-0.0289672	-0.0195942	0
99137.5	-0.0289481	-0.0195821	0
99207.5	-0.0288717	-0.0195891	0
99277.5	-0.0288908	-0.0195897	0
99347.5	-0.028929	-0.0195846	0
99417.5	-0.0288335	-0.0195833	0
99487.5	-0.028738	-0.0195942	0
99557.5	-0.0287953	-0.0195852	0
99627.5	-0.0286233	-0.0195871	0
99697.5	-0.0286042	-0.0195891	0
99767.5	-0.0284323	-0.0195954	0
99837.5	-0.0285087	-0.0195948	0
99907.5	-0.0284514	-0.0195903	0
99977.5	-0.0284132	-0.0195827	0
100048	-0.0284514	-0.019591	0
100118	-0.028375	-0.019584	0
100188	-0.028375	-0.0195903	0
100258	-0.0283368	-0.0195954	0
100328	-0.0281648	-0.0195865	0
100398	-0.0281839	-0.0195897	0
100468	-0.0281839	-0.0195897	0
100538	-0.0281075	-0.0195999	0
100608	-0.0281266	-0.0195878	0
100678	-0.0280311	-0.0195865	0
100748	-0.0279929	-0.0195922	0
100818	-0.0279165	-0.0195922	0
100888	-0.0281075	-0.019584	0
100958	-0.0279929	-0.019598	0
101028	-0.0279929	-0.0195891	0
101098	-0.0278782	-0.0195935	0
101168	-0.0279165	-0.0195891	0
101238	-0.0278591	-0.0195891	0
101308	-0.02784	-0.0195884	0
101378	-0.0278209	-0.0195859	0
101448	-0.0279356	-0.0195871	0
101518	-0.0277827	-0.0195948	0
101588	-0.0277636	-0.0195942	0
101658	-0.0278018	-0.0195961	0
101728	-0.0278973	-0.0195897	0
101798	-0.0277445	-0.0195922	0
101868	-0.0277827	-0.0195897	0
101938	-0.0278018	-0.0195891	0
102008	-0.0275535	-0.0195903	0
102078	-0.0276872	-0.0195859	0
102148	-0.0277827	-0.0195884	0
102218	-0.0278209	-0.0195916	0
102288	-0.0277445	-0.0195897	0
102358	-0.0277063	-0.019591	0
102428	-0.0276299	-0.0195884	0
102498	-0.0276872	-0.0195878	0
102568	-0.027649	-0.0195948	0
102638	-0.0277636	-0.0195852	0
102708	-0.0276681	-0.0195884	0
102778	-0.027649	-0.0195852	0
102848	-0.0276872	-0.0195859	0
102918	-0.0277254	-0.0195897	0
102988	-0.0277254	-0.0195916	0
103058	-0.0276299	-0.0195929	0
103128	-0.0275152	-0.0195846	0
103198	-0.0277445	-0.0195833	0
103268	-0.0278018	-0.0195948	0
103338	-0.0277063	-0.0195878	0
103408	-0.0277445	-0.0195865	0
103478	-0.0275726	-0.0195878	0
103548	-0.0276681	-0.0195871	0
103618	-0.0277254	-0.0195967	0
103688	-0.0277254	-0.0195916	0
103758	-0.0276299	-0.019591	0
103828	-0.0277445	-0.0195878	0
103898	-0.0277445	-0.0195986	0
103968	-0.0277445	-0.0195929	0
104038	-0.0277254	-0.0195954	0
104108	-0.0277063	-0.0195871	0
104178	-0.0277254	-0.0195859	0
104248	-0.0277445	-0.0195935	0
104318	-0.0278209	-0.0195871	0
104388	-0.0278591	-0.0195827	0
104458	-0.0276681	-0.0195878	0
104528	-0.0277636	-0.0195903	0
104598	-0.0276299	-0.0195916	0
104668	-0.0275726	-0.0195801	0
104738	-0.0277827	-0.0195897	0
104808	-0.0277636	-0.0195929	0
104878	-0.0276681	-0.0195833	0
104948	-0.0277063	-0.0195884	0
105018	-0.0275917	-0.0195852	0
105088	-0.027649	-0.0195903	0
105158	-0.0277254	-0.0195967	0
105228	-0.0277254	-0.0195865	0
105298	-0.0277445	-0.0195884	0
105368	-0.0276872	-0.0195897	0
105438	-0.0277636	-0.0195935	0
105508	-0.0275535	-0.0195992	0
105578	-0.027649	-0.0195916	0
105648	-0.0275917	-0.0195897	0
105718	-0.0275726	-0.0195897	0
105788	-0.0277063	-0.0195922	0
105858	-0.0276872	-0.0195884	0
105928	-0.0277636	-0.0195897	0
105998	-0.0277827	-0.0195954	0
106068	-0.0277063	-0.0195903	0
106138	-0.0278018	-0.0195878	0
106208	-0.0276681	-0.0195929	0
106278	-0.0276681	-0.0195916	0
106348	-0.0277445	-0.0195897	0
106418	-0.0276681	-0.0195897	0
106488	-0.0277636	-0.0195891	0
106558	-0.0277445	-0.0195942	0
106628	-0.0276872	-0.0195903	0
106698	-0.0277445	-0.019591	0
106768	-0.0277254	-0.0195903	0
106838	-0.0278209	-0.0195929	0
106908	-0.027649	-0.0195808	0
106978	-0.0277445	-0.0195922	0
107048	-0.0276299	-0.0195948	0
107118	-0.0277827	-0.0195871	0
107188	-0.0276299	-0.0195916	0
107258	-0.0277827	-0.0195929	0
107328	-0.0277254	-0.0195967	0
107398	-0.0276872	-0.0195961	0
107468	-0.0277636	-0.019591	0
107538	-0.0278209	-0.0195922	0
107608	-0.0277827	-0.0195884	0
107678	-0.0277827	-0.0195948	0
107748	-0.0278018	-0.0195897	0
107818	-0.0277827	-0.0195878	0
107888	-0.02784	-0.0195942	0
107958	-0.0277827	-0.0195897	0
108028	-0.0278018	-0.0195871	0
108098	-0.0278209	-0.0195878	0
108168	-0.0277254	-0.0195954	0
108238	-0.0278209	-0.0195922	0
108308	-0.0278782	-0.0195922	0
108378	-0.0278591	-0.0195954	0
108448	-0.0278209	-0.019598	0
108518	-0.0278782	-0.0195929	0
108588	-0.0278591	-0.0195942	0
108658	-0.0278018	-0.0195967	0
108728	-0.0279356	-0.0195891	0
108798	-0.02784	-0.0195922	0
108868	-0.0277445	-0.0195871	0
108938	-0.0278209	-0.0195986	0
109008	-0.0279356	-0.0195999	0
109078	-0.0278018	-0.0195942	0
109148	-0.0278018	-0.0195846	0
109218	-0.0278973	-0.0195903	0
109288	-0.0279929	-0.0195846	0
109358	-0.0279547	-0.0195871	0
109428	-0.0279165	-0.0195961	0
109498	-0.0278591	-0.0195948	0
109568	-0.0277827	-0.0195903	0
109638	-0.0278591	-0.0195961	0
109708	-0.0278018	-0.0195922	0
109778	-0.0279547	-0.0195929	0
109848	-0.0278973	-0.0195961	0
109918	-0.0279547	-0.0195967	0
109988	-0.0277254	-0.0195916	0
110058	-0.0278018	-0.0195967	0
110128	-0.0278018	-0.0195891	0
110198	-0.0279929	-0.0195833	0
110268	-0.0278591	-0.0195897	0
110338	-0.0279165	-0.0195942	0
110408	-0.0279356	-0.0195935	0
110478	-0.0279929	-0.0195929	0
110548	-0.0278782	-0.0195954	0
110618	-0.0278973	-0.019591	0
110688	-0.0278782	-0.0195897	0
110758	-0.0279165	-0.019591	0
110828	-0.0279356	-0.0195884	0
110898	-0.0278018	-0.0195884	0
110968	-0.0279929	-0.019591	0
111038	-0.02784	-0.0195891	0
111108	-0.0278209	-0.0195865	0
111178	-0.0278591	-0.0195942	0
111248	-0.0278209	-0.0196005	0
111318	-0.0278973	-0.0195942	0
111388	-0.0279356	-0.0195935	0
111458	-0.0279547	-0.0195878	0
111528	-0.0278973	-0.0195903	0
111598	-0.02784	-0.0195986	0
111668	-0.0278782	-0.0195935	0
111738	-0.0278782	-0.0195935	0
111808	-0.0278209	-0.019591	0
111878	-0.0279165	-0.0195954	0
111948	-0.0279547	-0.0195891	0
112018	-0.0278209	-0.0195897	0
112088	-0.028012	-0.0195897	0
112158	-0.0278782	-0.0195935	0
112228	-0.0278591	-0.0195967	0
112298	-0.02784	-0.0195922	0
112368	-0.0278209	-0.019591	0
112438	-0.02784	-0.0195897	0
112508	-0.0278209	-0.0195897	0
112578	-0.0278018	-0.0195891	0
112648	-0.0279929	-0.0195878	0
112718	-0.0278591	-0.0195973	0
112788	-0.02784	-0.0195929	0
112858	-0.0277827	-0.019591	0
112928	-0.02784	-0.0195897	0
112998	-0.0277254	-0.019591	0
113068	-0.0278209	-0.019591	0
113138	-0.0278018	-0.0195942	0
113208	-0.0278973	-0.0195929	0
113278	-0.0277445	-0.0195852	0
113348	-0.0278018	-0.0195884	0
113418	-0.0277254	-0.0195916	0
113488	-0.0276872	-0.0195942	0
113558	-0.0277445	-0.0195871	0
113628	-0.0278018	-0.019591	0
113698	-0.0276108	-0.0195871	0
113768	-0.0277254	-0.0195916	0
113838	-0.0278018	-0.0195884	0
113908	-0.0277445	-0.0195935	0
113978	-0.0277827	-0.0195891	0
114048	-0.0277254	-0.0195897	0
114118	-0.027649	-0.0195986	0
114188	-0.0277254	-0.0195903	0
114258	-0.0275726	-0.0195897	0
114328	-0.0275917	-0.0195935	0
114398	-0.0275535	-0.0195859	0
114468	-0.0276108	-0.019591	0
114538	-0.0275917	-0.0195916	0
114608	-0.0275535	-0.0195884	0
114678	-0.0276108	-0.0195935	0
114748	-0.0275917	-0.019591	0
114818	-0.0275535	-0.0195922	0
114888	-0.0275152	-0.0195871	0
114958	-0.0275152	-0.019591	0
115028	-0.0274579	-0.0195929	0
115098	-0.0275344	-0.0195929	0
115168	-0.0274006	-0.0195878	0
115238	-0.0274388	-0.0195871	0
115308	-0.0274579	-0.0195922	0
115378	-0.0273624	-0.019598	0
115448	-0.0273051	-0.0195865	0
115518	-0.0274006	-0.0195922	0
115588	-0.0273242	-0.0195903	0
115658	-0.0272669	-0.0195922	0
115710	-0.0273433	-0.0195871	0

File: 2024-04-25_JP-A2-03_T-cell_Li-Cu_1-mm-PP-spacer_75muL-4MLiFSI-DME_inside-glovebox_added-OCV-0.1s_04_CP_C10.txt
time/s	Ewe/V	I/mA	error
3473.35	0.0035201	-0.1947	0
3473.35	-0.00969526	-0.195983	0
3473.35	-0.0133035	-0.195984	0
3473.35	-0.0160144	-0.195993	0
3473.35	-0.0184389	-0.195991	0
3473.35	-0.0207108	-0.195998	0
3473.35	-0.023899	-0.195989	0
3473.36	-0.0277935	-0.195988	0
3473.36	-0.0312108	-0.19599	0
3473.36	-0.0344563	-0.195993	0
3473.36	-0.0374536	-0.195994	0
3473.36	-0.0404318	-0.195991	0
3473.36	-0.0433527	-0.195989	0
3473.36	-0.0460255	-0.195986	0
3473.36	-0.04866	-0.195986	0
3473.36	-0.0510464	-0.195984	0
3473.36	-0.0535664	-0.195988	0
3473.36	-0.0558764	-0.19599	0
3473.36	-0.0581673	-0.195986	0
3473.37	-0.0604583	-0.19599	0
3473.37	-0.0626537	-0.195993	0
3473.37	-0.0651356	-0.195992	0
3473.37	-0.0678274	-0.195993	0
3473.37	-0.0707674	-0.195995	0
3473.37	-0.0732493	-0.195985	0
3473.37	-0.0759602	-0.195986	0
3473.37	-0.0786902	-0.195992	0
3473.37	-0.0811911	-0.195991	0
3473.37	-0.0833675	-0.195991	0
3473.38	-0.0858875	-0.195991	0
3473.38	-0.0882166	-0.195994	0
3473.38	-0.0905457	-0.195991	0
3473.38	-0.0931994	-0.195993	0
3473.38	-0.0954903	-0.195998	0
3473.38	-0.0980294	-0.195994	0
3473.38	-0.100339	-0.195989	0
3473.39	-0.102363	-0.19599	0
3473.39	-0.104482	-0.195988	0
3473.39	-0.106945	-0.195991	0
3473.39	-0.109274	-0.195993	0
3473.39	-0.111527	-0.19599	0
3473.39	-0.113932	-0.195993	0
3473.39	-0.116299	-0.19599	0
3473.4	-0.118476	-0.195996	0
3473.4	-0.121015	-0.195985	0
3473.4	-0.12344	-0.19599	0
3473.4	-0.125769	-0.19599	0
3473.4	-0.128098	-0.195986	0
3473.41	-0.130503	-0.195991	0
3473.41	-0.132794	-0.195993	0
3473.41	-0.134913	-0.195997	0
3473.41	-0.137223	-0.195988	0
3473.41	-0.139533	-0.195997	0
3473.42	-0.141652	-0.195993	0
3473.42	-0.143943	-0.19599	0
3473.42	-0.146062	-0.195993	0
3473.42	-0.148315	-0.195989	0
3473.42	-0.150339	-0.19599	0
3473.43	-0.152744	-0.195993	0
3473.43	-0.155054	-0.195991	0
3473.43	-0.157192	-0.195987	0
3473.44	-0.15935	-0.195988	0
3473.44	-0.161507	-0.195986	0
3473.44	-0.163569	-0.195989	0
3473.44	-0.165592	-0.195988	0
3473.45	-0.167712	-0.195996	0
3473.45	-0.169812	-0.195988	0
3473.46	-0.171912	-0.19599	0
3473.46	-0.174107	-0.195991	0
3473.46	-0.176417	-0.195991	0
3473.47	-0.178536	-0.19599	0
3473.47	-0.180617	-0.195985	0
3473.48	-0.182717	-0.195993	0
3473.48	-0.184741	-0.195994	0
3473.49	-0.186822	-0.195991	0
3473.49	-0.188979	-0.195988	0
3473.5	-0.191136	-0.195995	0
3473.5	-0.193179	-0.195988	0
3473.51	-0.195317	-0.195993	0
3473.52	-0.19736	-0.195997	0
3473.55	-0.197264	-0.195993	0
3473.56	-0.195126	-0.195993	0
3473.57	-0.192874	-0.195988	0
3473.57	-0.190716	-0.195993	0
3473.58	-0.188597	-0.195993	0
3473.58	-0.186306	-0.195994	0
3473.59	-0.183977	-0.195995	0
3473.59	-0.181934	-0.195991	0
3473.6	-0.179853	-0.19599	0
3473.6	-0.177715	-0.195994	0
3473.6	-0.175577	-0.195991	0
3473.61	-0.173496	-0.195984	0
3473.61	-0.17111	-0.195993	0
3473.62	-0.168895	-0.195993	0
3473.62	-0.166662	-0.195984	0
3473.63	-0.164581	-0.195995	0
3473.63	-0.162404	-0.195993	0
3473.64	-0.160094	-0.195988	0
3473.64	-0.157956	-0.195992	0
3473.65	-0.155837	-0.195984	0
3473.65	-0.153737	-0.195988	0
3473.66	-0.151503	-0.195997	0
3473.66	-0.149403	-0.19599	0
3473.67	-0.147265	-0.195995	0
3473.68	-0.145031	-0.195994	0
3473.68	-0.142893	-0.195991	0
3473.69	-0.140793	-0.195987	0
3473.7	-0.138579	-0.19599	0
3473.71	-0.136421	-0.195997	0
3473.71	-0.134302	-0.195994	0
3473.72	-0.132088	-0.195988	0
3473.73	-0.130026	-0.195984	0
3473.74	-0.127964	-0.195988	0
3473.76	-0.125864	-0.195988	0
3473.77	-0.12365	-0.195991	0
3473.78	-0.121626	-0.195987	0
3473.8	-0.119526	-0.195991	0
3473.82	-0.117502	-0.195987	0
3473.83	-0.115402	-0.195996	0
3473.86	-0.113321	-0.195984	0
3473.88	-0.111259	-0.195994	0
3473.91	-0.109236	-0.195992	0
3473.95	-0.107212	-0.195993	0
3473.99	-0.105189	-0.195993	0
3474.05	-0.103146	-0.195993	0
3474.11	-0.101122	-0.195992	0
3474.21	-0.0990794	-0.195988	0
3474.34	-0.0969985	-0.195989	0
3474.55	-0.0948794	-0.195994	0
3474.86	-0.0927794	-0.19599	0
3475.47	-0.0907366	-0.195988	0
3476.62	-0.088713	-0.195993	0
3478.84	-0.0866893	-0.195993	0
3482.73	-0.0846466	-0.19599	0
3488.27	-0.0826038	-0.195994	0
3494.92	-0.0805611	-0.195989	0
3502.2	-0.0785375	-0.195986	0
3510.43	-0.0765138	-0.195993	0
3519.56	-0.0744138	-0.195993	0
3530.41	-0.0723711	-0.195987	0
3549.44	-0.0707674	-0.195996	0
3569.44	-0.0700038	-0.195996	0
3589.44	-0.0696792	-0.195989	0
3609.44	-0.0696792	-0.195985	0
3629.44	-0.0696983	-0.195998	0
3649.44	-0.0698892	-0.195986	0
3669.44	-0.0700229	-0.195996	0
3689.44	-0.0702138	-0.195991	0
3709.44	-0.0704047	-0.195991	0
3729.44	-0.0705192	-0.195993	0
3749.44	-0.0706338	-0.195993	0
3769.44	-0.0709011	-0.195991	0
3789.44	-0.070882	-0.195993	0
3809.44	-0.0710538	-0.195992	0
3829.44	-0.0712829	-0.195993	0
3849.44	-0.0713592	-0.195998	0
3869.44	-0.0713401	-0.195998	0
3889.44	-0.0716265	-0.195997	0
3909.44	-0.0716265	-0.195991	0
3929.44	-0.0717792	-0.195998	0
3949.44	-0.0717411	-0.195991	0
3969.44	-0.0718938	-0.195997	0
3989.44	-0.0717601	-0.195995	0
4009.44	-0.071932	-0.195991	0
4029.44	-0.0720274	-0.195992	0
4049.44	-0.0718365	-0.195997	0
4069.44	-0.0718556	-0.195995	0
4089.44	-0.0718747	-0.195991	0
4109.44	-0.0716838	-0.19599	0
4129.44	-0.0716838	-0.195994	0
4149.44	-0.0717411	-0.195992	0
4169.44	-0.0717029	-0.195995	0
4189.44	-0.0717411	-0.195996	0
4209.44	-0.0716074	-0.195996	0
4229.44	-0.0715311	-0.195991	0
4249.44	-0.0714165	-0.195995	0
4269.44	-0.0714738	-0.195992	0
4289.44	-0.0714738	-0.196	0
4309.44	-0.0712065	-0.196	0
4329.44	-0.0713211	-0.195991	0
4349.44	-0.0712065	-0.195991	0
4369.44	-0.0710729	-0.19599	0
4389.44	-0.0710347	-0.195993	0
4409.44	-0.0709583	-0.195986	0
4429.44	-0.0709011	-0.195987	0
4449.44	-0.0708629	-0.195998	0
4469.44	-0.0708629	-0.195995	0
4489.44	-0.0707674	-0.19599	0
4509.44	-0.0707483	-0.195993	0
4529.44	-0.0706529	-0.195993	0
4549.44	-0.070462	-0.195992	0
4569.44	-0.070481	-0.196	0
4589.44	-0.070481	-0.195993	0
4609.44	-0.0703665	-0.195997	0
4629.44	-0.0703474	-0.19599	0
4649.44	-0.0702901	-0.195995	0
4669.44	-0.0702901	-0.195998	0
4689.44	-0.0701565	-0.19599	0
4709.44	-0.0701183	-0.195991	0
4729.44	-0.0700801	-0.195995	0
4749.44	-0.0699274	-0.195988	0
4769.44	-0.0700038	-0.195989	0
4789.44	-0.069851	-0.195997	0
4809.44	-0.0698701	-0.19599	0
4829.44	-0.0697938	-0.195991	0
4849.44	-0.0699083	-0.195986	0
4869.44	-0.0697174	-0.195991	0
4889.44	-0.069622	-0.195995	0
4909.44	-0.0697747	-0.195991	0
4929.44	-0.0695838	-0.195992	0
4949.44	-0.0696792	-0.195993	0
4969.44	-0.0695647	-0.195991	0
4989.44	-0.0693738	-0.195995	0
5009.44	-0.0694501	-0.195993	0
5029.44	-0.069412	-0.195995	0
5049.44	-0.0693738	-0.195993	0
5069.44	-0.069202	-0.195997	0
5089.44	-0.0692783	-0.195996	0
5109.44	-0.069221	-0.195985	0
5129.44	-0.0692401	-0.195999	0
5149.44	-0.0691638	-0.195993	0
5169.44	-0.0691638	-0.196	0
5189.44	-0.0690874	-0.195999	0
5209.44	-0.0690301	-0.195989	0
5229.44	-0.069011	-0.195995	0
5249.44	-0.0689538	-0.19599	0
5269.44	-0.068992	-0.195991	0
5273.35	-0.0688965	-0.195995	0

File: 2024-04-26_JP-A2-04_T-cell_Li-Cu_1-mm-PP-spacer_75muL-4MLiFSI-DME_inside-glovebox_added-OCV-0.1s_02_MB_C10.txt
time/s	Ewe/V	I/mA	error
60.053	2.966	-0.0250155	0
60.1714	0.00863157	-9.53035	0
60.1984	0.00863157	-8.53229	0
60.2296	0.0085743	-7.51766	0
60.2676	0.00859339	-6.524	0
60.3142	0.00863157	-5.52977	0
60.3774	0.00863157	-4.55044	0
60.4872	0.00859339	-3.58731	0
60.7154	0.00882248	-2.62806	0
61.2778	0.00876521	-1.672	0
64.3108	0.00851702	-0.716825	0
171.059	0.00866975	-0.144337	0
361.059	0.00866975	-0.0943787	0
551.059	0.00868884	-0.0749007	0
741.059	0.00859339	-0.063485	0
931.059	0.00859339	-0.0558554	0
1121.06	0.00868884	-0.050103	0
1311.06	0.00861248	-0.0457632	0
1501.06	0.00870793	-0.0426308	0
1691.06	0.00870793	-0.0397313	0
1881.06	0.00870793	-0.0373486	0
2071.06	0.00863157	-0.0352699	0
2261.06	0.00865066	-0.0334795	0
2451.06	0.00866975	-0.0318233	0
2641.06	0.00868884	-0.0305419	0
2831.06	0.00863157	-0.0293585	0
3021.06	0.00872702	-0.0283341	0
3211.06	0.00853611	-0.0273002	0
3401.06	0.00870793	-0.026594	0
3591.06	0.00861248	-0.0258362	0
3781.06	0.00874612	-0.025128	0
3971.06	0.00865066	-0.0245293	0
4161.06	0.00865066	-0.0239103	0
4351.06	0.00865066	-0.0233853	0
4541.06	0.00870793	-0.0228223	0
4731.06	0.00861248	-0.0223553	0
4921.06	0.00874612	-0.0219334	0
5111.06	0.00868884	-0.0215803	0
5301.06	0.0085743	-0.0211642	0
5491.06	0.00863157	-0.0208073	0
5681.06	0.00872702	-0.020416	0
5871.06	0.00865066	-0.0201888	0
6061.06	0.00870793	-0.0198077	0
6251.06	0.00870793	-0.0193973	0
6441.06	0.00872702	-0.0191714	0
6631.06	0.00874612	-0.0188877	0
6821.06	0.00872702	-0.018525	0
7011.06	0.00874612	-0.0183558	0
7201.06	0.00872702	-0.0181051	0
7391.06	0.00865066	-0.0178576	0
7581.06	0.00868884	-0.0175382	0
7771.06	0.00872702	-0.017416	0
7961.06	0.00863157	-0.0172086	0
8151.06	0.00868884	-0.017026	0
8341.06	0.00870793	-0.0167015	0
8531.06	0.00872702	-0.0165844	0
8721.06	0.00884157	-0.0164508	0
8911.06	0.00870793	-0.0162319	0
9101.06	0.00865066	-0.0161518	0
9291.06	0.00863157	-0.0158317	0
9481.06	0.00861248	-0.0157758	0
9671.06	0.00866975	-0.0154882	0
9861.06	0.00865066	-0.0153062	0
10051.1	0.00872702	-0.0153317	0
10241.1	0.00872702	-0.015184	0
10431.1	0.00865066	-0.0149206	0
10621.1	0.00870793	-0.0148386	0
10811.1	0.00865066	-0.014731	0
11001.1	0.00866975	-0.0145472	0
11191.1	0.00866975	-0.0144097	0
11381.1	0.00870793	-0.0142939	0
11571.1	0.00865066	-0.0141819	0
11761.1	0.00866975	-0.0140642	0
11951.1	0.00866975	-0.013888	0
12141.1	0.00870793	-0.0137945	0
12331.1	0.00870793	-0.0136456	0
12521.1	0.00866975	-0.0136023	0
12711.1	0.00884157	-0.0134592	0
12901.1	0.00872702	-0.0133841	0
13091.1	0.00874612	-0.0132237	0
13281.1	0.0087843	-0.0131639	0
13471.1	0.00874612	-0.0130011	0
13661.1	0.00880339	-0.0129393	0
13851.1	0.00863157	-0.0127001	0
14041.1	0.00872702	-0.012562	0
14231.1	0.00866975	-0.0125601	0
14421.1	0.00859339	-0.0124042	0
14611.1	0.00866975	-0.0122649	0
14801.1	0.00870793	-0.0122019	0
14991.1	0.00870793	-0.0120702	0
15181.1	0.00865066	-0.0119951	0
15371.1	0.00868884	-0.0118857	0
15561.1	0.00866975	-0.0117737	0
15751.1	0.00870793	-0.0117063	0
15941.1	0.00865066	-0.0116083	0
16131.1	0.00865066	-0.0114772	0
16321.1	0.00868884	-0.0113799	0
16511.1	0.00861248	-0.0112857	0
16701.1	0.00863157	-0.0112183	0
16891.1	0.00868884	-0.0111572	0
17081.1	0.00861248	-0.0109727	0
17271.1	0.00859339	-0.0109714	0
17461.1	0.0087843	-0.0109078	0
17651.1	0.00868884	-0.0108155	0
17841.1	0.00866975	-0.0107443	0
18031.1	0.00866975	-0.0105941	0
18221.1	0.00870793	-0.0105254	0
18411.1	0.00874612	-0.0104783	0
18601.1	0.00866975	-0.0103981	0
18791.1	0.00874612	-0.0103682	0
18981.1	0.00868884	-0.0102327	0
19171.1	0.00874612	-0.0102473	0
19361.1	0.00868884	-0.0101315	0
19551.1	0.00859339	-0.0100915	0
19741.1	0.00859339	-0.00994195	0
19931.1	0.00865066	-0.00989105	0
20121.1	0.00872702	-0.00983187	0
20311.1	0.00863157	-0.00979752	0
20501.1	0.00866975	-0.00980706	0
20691.1	0.00863157	-0.00972371	0
20881.1	0.00872702	-0.00962764	0
21071.1	0.00876521	-0.00961937	0
21261.1	0.00870793	-0.00958564	0
21451.1	0.00865066	-0.00950738	0
21641.1	0.00866975	-0.00941004	0
21831.1	0.00861248	-0.00929042	0
22021.1	0.00863157	-0.00933178	0
22211.1	0.00859339	-0.00915872	0
22401.1	0.00859339	-0.00922489	0
22591.1	0.00870793	-0.00914345	0
22781.1	0.00868884	-0.00905628	0
22971.1	0.00866975	-0.00902829	0
23161.1	0.00865066	-0.00893221	0
23351.1	0.00868884	-0.00887368	0
23541.1	0.00868884	-0.0088145	0
23731.1	0.00872702	-0.00875661	0
23921.1	0.00861248	-0.00872288	0
24111.1	0.00866975	-0.00863572	0
24301.1	0.00872702	-0.00853137	0
24491.1	0.00865066	-0.0086179	0
24681.1	0.0087843	-0.00847538	0
24871.1	0.00866975	-0.00838885	0
25061.1	0.0085743	-0.00833413	0
25251.1	0.00866975	-0.00831186	0
25441.1	0.00866975	-0.00822215	0
25631.1	0.00861248	-0.00815153	0
25821.1	0.00861248	-0.00815789	0
26011.1	0.00865066	-0.00805354	0
26201.1	0.00861248	-0.0080739	0
26391.1	0.00849793	-0.00793138	0
26581.1	0.00865066	-0.00793202	0
26771.1	0.00874612	-0.00786521	0
26961.1	0.00872702	-0.00775005	0
27151.1	0.00866975	-0.00778886	0
27341.1	0.0085743	-0.00773605	0
27531.1	0.00865066	-0.00764507	0
27721.1	0.00870793	-0.00763362	0
27911.1	0.00870793	-0.0075789	0
28101.1	0.00870793	-0.00755409	0
28291.1	0.00870793	-0.00737084	0
28481.1	0.00870793	-0.00741665	0
28671.1	0.00863157	-0.00737021	0
28861.1	0.00868884	-0.00726268	0
29051.1	0.00870793	-0.00718697	0
29241.1	0.00865066	-0.00719015	0
29431.1	0.00863157	-0.00708389	0
29621.1	0.00868884	-0.00698846	0
29811.1	0.00870793	-0.00707499	0
30001.1	0.00870793	-0.00690702	0
30191.1	0.00863157	-0.00696619	0
30381.1	0.00863157	-0.00680776	0
30571.1	0.00863157	-0.00680649	0
30761.1	0.00865066	-0.00674095	0
30951.1	0.00870793	-0.0066716	0
31141.1	0.00861248	-0.00664424	0
31331.1	0.00868884	-0.00659398	0
31521.1	0.00865066	-0.00661307	0
31711.1	0.00866975	-0.00647882	0
31901.1	0.00872702	-0.00652717	0
32091.1	0.00859339	-0.00645082	0
32281.1	0.00866975	-0.00645464	0
32471.1	0.00865066	-0.00642728	0
32661.1	0.00866975	-0.00635538	0
32851.1	0.00865066	-0.00631085	0
33041.1	0.00870793	-0.00626567	0
33231.1	0.00863157	-0.00631021	0
33421.1	0.00861248	-0.00617023	0
33611.1	0.00868884	-0.00624404	0
33801.1	0.00874612	-0.00615115	0
33991.1	0.0087843	-0.00606589	0
34181.1	0.00874612	-0.00606907	0
34371.1	0.00866975	-0.00597172	0
34561.1	0.00861248	-0.00594246	0
34751.1	0.0085743	-0.00597999	0
34941.1	0.00884157	-0.00595391	0
35131.1	0.00872702	-0.00587947	0
35321.1	0.0087843	-0.00585974	0
35511.1	0.00870793	-0.00576812	0
35701.1	0.00868884	-0.00583684	0
35891.1	0.00876521	-0.00577767	0
36081.1	0.00868884	-0.0057414	0
36271.1	0.00872702	-0.00570831	0
36461.1	0.00866975	-0.00567014	0
36651.1	0.00863157	-0.00560524	0
36841.1	0.00866975	-0.00563387	0
37031.1	0.00870793	-0.0055537	0
37221.1	0.00868884	-0.00552698	0
37411.1	0.00863157	-0.00552571	0
37601.1	0.00865066	-0.00543536	0
37791.1	0.00868884	-0.00545509	0
37981.1	0.00870793	-0.00535456	0
38171.1	0.00870793	-0.00539655	0
38361.1	0.00874612	-0.00538064	0
38551.1	0.00855521	-0.00533611	0
38741.1	0.00870793	-0.00526039	0
38931.1	0.00870793	-0.00523176	0
39121.1	0.00880339	-0.00522031	0
39311.1	0.00870793	-0.00522667	0
39501.1	0.00870793	-0.00515223	0
39691.1	0.00863157	-0.00512932	0
39881.1	0.00870793	-0.00512996	0
40071.1	0.00872702	-0.00516114	0
40261.1	0.00874612	-0.00509751	0
40451.1	0.00863157	-0.00510578	0
40641.1	0.00868884	-0.00503834	0
40831.1	0.00874612	-0.00498489	0
41021.1	0.00863157	-0.00502307	0
41211.1	0.00882248	-0.00493336	0
41401.1	0.00876521	-0.00495181	0
41591.1	0.00865066	-0.00496835	0
41781.1	0.00870793	-0.004871	0
41971.1	0.00872702	-0.00486082	0
42161.1	0.00876521	-0.00489073	0
42351.1	0.00874612	-0.0048411	0
42541.1	0.00874612	-0.00480356	0
42731.1	0.00872702	-0.00485701	0
42921.1	0.00870793	-0.00477811	0
43111.1	0.00880339	-0.00477684	0
43301.1	0.00866975	-0.00476984	0
43491.1	0.00865066	-0.00475584	0
43681.1	0.00866975	-0.00470049	0
43871.1	0.00866975	-0.00470176	0
44061.1	0.00865066	-0.00462605	0
44251.1	0.00863157	-0.00465977	0
44441.1	0.00876521	-0.00465722	0
44631.1	0.00863157	-0.0046375	0
44821.1	0.00874612	-0.00461269	0
45011.1	0.0087843	-0.00453443	0
45201.1	0.00866975	-0.00454842	0
45391.1	0.00865066	-0.0045567	0
45581.1	0.00863157	-0.00451904	0
45771.1	0.00868884	-0.00450866	0
45961.1	0.00863157	-0.00447971	0
46151.1	0.00876521	-0.00453285	0
46341.1	0.00866975	-0.00446462	0
46531.1	0.00882248	-0.00450981	0
46721.1	0.00868884	-0.00442147	0
46911.1	0.0087843	-0.00447582	0
47101.1	0.00865066	-0.00443458	0
47291.1	0.00868884	-0.00437826	0
47481.1	0.00876521	-0.00441574	0
47671.1	0.00876521	-0.00439971	0
47861.1	0.00876521	-0.00432811	0
48051.1	0.00876521	-0.0042996	0
48241.1	0.00868884	-0.00436649	0
48431.1	0.00859339	-0.00430463	0
48621.1	0.00872702	-0.00425995	0
48811.1	0.00865066	-0.00434517	0
49001.1	0.00870793	-0.0042343	0
49191.1	0.00865066	-0.00424945	0
49381.1	0.0087843	-0.00423125	0
49571.1	0.00876521	-0.00421731	0
49761.1	0.00876521	-0.00416805	0
49951.1	0.00870793	-0.00422724	0
50141.1	0.00872702	-0.0041725	0
50331.1	0.0085743	-0.00415036	0
50521.1	0.00863157	-0.00416805	0
50711.1	0.00874612	-0.00415914	0
50901.1	0.00872702	-0.00408099	0
51091.1	0.00872702	-0.00405661	0
51281.1	0.00874612	-0.00409009	0
51471.1	0.00868884	-0.00403134	0
51661.1	0.00876521	-0.00402142	0
51851.1	0.00865066	-0.00401792	0
52041.1	0.00870793	-0.00400003	0
52231.1	0.00865066	-0.00398209	0
52421.1	0.00868884	-0.00396948	0
52611.1	0.00872702	-0.00395256	0
52801.1	0.00870793	-0.00396376	0
52844.8	0.00868884	-0.00393359	0