Folder: MASTER-THESIS/EXPERIMENTAL/Data/Battery-cycling/JP-measurements/T-cell (part 5)

File: 2024-04-26_JP-A2-04_T-cell_Li-Cu_1-mm-PP-spacer_75muL-4MLiFSI-DME_inside-glovebox_added-OCV-0.1s_04_CP_C10.txt
time/s	Ewe/V	I/mA	error
52845	-0.0286319	-0.194647	0
52845	-0.0772965	-0.195968	0
52845	-0.0926075	-0.195979	0
52845	-0.100015	-0.195984	0
52845	-0.104139	-0.195987	0
52845	-0.107059	-0.195986	0
52845	-0.109408	-0.195986	0
52845	-0.11271	-0.195983	0
52845	-0.115612	-0.195979	0
52845	-0.117941	-0.195984	0
52845	-0.120614	-0.195983	0
52845	-0.123115	-0.195983	0
52845	-0.125673	-0.195979	0
52845	-0.12827	-0.195991	0
52845	-0.130599	-0.195987	0
52845	-0.133004	-0.195984	0
52845	-0.135658	-0.195988	0
52845	-0.137777	-0.195989	0
52845	-0.140259	-0.195986	0
52845	-0.14276	-0.195988	0
52845	-0.145051	-0.195987	0
52845	-0.147361	-0.195979	0
52845	-0.149709	-0.195986	0
52845	-0.151923	-0.195987	0
52845	-0.154424	-0.195988	0
52845	-0.156849	-0.195983	0
52845	-0.159025	-0.19599	0
52845	-0.161163	-0.195988	0
52845	-0.163531	-0.195987	0
52845	-0.165688	-0.195988	0
52845	-0.167864	-0.195987	0
52845	-0.169907	-0.195987	0
52845	-0.172007	-0.195987	0
52845	-0.174317	-0.195977	0
52845	-0.176551	-0.195984	0
52845	-0.178803	-0.195986	0
52845	-0.181037	-0.195985	0
52845	-0.183156	-0.195991	0
52845	-0.185275	-0.195985	0
52845	-0.187624	-0.195988	0
52845	-0.189819	-0.195991	0
52845	-0.192034	-0.195989	0
52845	-0.194076	-0.195987	0
52845	-0.196234	-0.195984	0
52845.1	-0.198314	-0.195993	0
52845.1	-0.200777	-0.195985	0
52845.1	-0.20282	-0.195981	0
52845.1	-0.205111	-0.195991	0
52845.1	-0.207287	-0.195984	0
52845.1	-0.209368	-0.195983	0
52845.1	-0.211602	-0.195988	0
52845.1	-0.213683	-0.195993	0
52845.1	-0.215955	-0.195987	0
52845.1	-0.218074	-0.195981	0
52845.1	-0.220212	-0.195986	0
52845.1	-0.222255	-0.195991	0
52845.1	-0.224278	-0.195984	0
52845.1	-0.226397	-0.19599	0
52845.1	-0.228459	-0.195985	0
52845.1	-0.230731	-0.195986	0
52845.1	-0.233022	-0.195987	0
52845.1	-0.235084	-0.195986	0
52845.1	-0.237184	-0.19599	0
52845.1	-0.239227	-0.195991	0
52845.1	-0.241365	-0.19599	0
52845.2	-0.243446	-0.195986	0
52845.2	-0.245527	-0.195984	0
52845.2	-0.247741	-0.195985	0
52845.2	-0.249937	-0.195986	0
52845.2	-0.252075	-0.195986	0
52845.2	-0.254251	-0.195991	0
52845.2	-0.256313	-0.195989	0
52845.2	-0.258547	-0.195983	0
52845.2	-0.260704	-0.195983	0
52845.2	-0.262899	-0.195986	0
52845.2	-0.26498	-0.195985	0
52845.3	-0.26708	-0.195987	0
52845.3	-0.269333	-0.195986	0
52845.3	-0.271433	-0.195992	0
52845.3	-0.271471	-0.195983	0
52845.3	-0.269448	-0.195986	0
52845.4	-0.267348	-0.195988	0
52845.4	-0.265248	-0.19599	0
52845.4	-0.263205	-0.195982	0
52845.4	-0.261124	-0.195983	0
52845.4	-0.259043	-0.195986	0
52845.4	-0.256962	-0.195989	0
52845.4	-0.254919	-0.19599	0
52845.4	-0.2528	-0.195991	0
52845.4	-0.250662	-0.195986	0
52845.4	-0.24839	-0.195988	0
52845.4	-0.246328	-0.195987	0
52845.5	-0.244133	-0.195984	0
52845.5	-0.242071	-0.195984	0
52845.5	-0.240009	-0.195983	0
52845.5	-0.237852	-0.195986	0
52845.5	-0.23579	-0.195986	0
52845.5	-0.233556	-0.195988	0
52845.5	-0.231437	-0.195989	0
52845.5	-0.229376	-0.195988	0
52845.5	-0.227276	-0.195989	0
52845.6	-0.225195	-0.195991	0
52845.6	-0.223114	-0.195986	0
52845.6	-0.221033	-0.19599	0
52845.6	-0.218914	-0.195984	0
52845.6	-0.216756	-0.195984	0
52845.6	-0.214656	-0.195983	0
52845.6	-0.212614	-0.195981	0
52845.7	-0.210418	-0.195984	0
52845.7	-0.208375	-0.195984	0
52845.7	-0.206295	-0.195984	0
52845.7	-0.204233	-0.195984	0
52845.7	-0.202133	-0.195986	0
52845.8	-0.200014	-0.195987	0
52845.8	-0.197933	-0.195984	0
52845.8	-0.19589	-0.195984	0
52845.8	-0.193752	-0.195989	0
52845.9	-0.19169	-0.19599	0
52845.9	-0.189647	-0.195986	0
52845.9	-0.187566	-0.195985	0
52845.9	-0.185485	-0.195986	0
52846	-0.183423	-0.195986	0
52846	-0.181323	-0.195982	0
52846.1	-0.179223	-0.195992	0
52846.1	-0.177028	-0.195986	0
52846.2	-0.174966	-0.195986	0
52846.3	-0.172904	-0.195985	0
52846.4	-0.170843	-0.195989	0
52846.5	-0.1688	-0.195992	0
52846.7	-0.166776	-0.195989	0
52847	-0.164676	-0.195984	0
52847.6	-0.162576	-0.195986	0
52849.1	-0.160533	-0.195985	0
52851.4	-0.158491	-0.195986	0
52853.1	-0.156467	-0.195988	0
52854.5	-0.154405	-0.19599	0
52855.7	-0.152381	-0.195986	0
52856.8	-0.150339	-0.195987	0
52857.9	-0.148296	-0.195983	0
52859	-0.146196	-0.195986	0
52860.1	-0.144134	-0.195986	0
52861.2	-0.142053	-0.195989	0
52862.3	-0.139934	-0.19599	0
52863.6	-0.137911	-0.195988	0
52864.8	-0.135887	-0.195993	0
52866.2	-0.133863	-0.195991	0
52867.6	-0.13184	-0.195983	0
52869.3	-0.129778	-0.195989	0
52871	-0.127697	-0.195988	0
52873	-0.125673	-0.19599	0
52875.2	-0.12363	-0.195987	0
52877.7	-0.121588	-0.195989	0
52880.4	-0.119564	-0.195984	0
52883.7	-0.117464	-0.195986	0
52887.3	-0.11544	-0.195991	0
52891.5	-0.113417	-0.195986	0
52896.6	-0.111374	-0.19599	0
52902.7	-0.109293	-0.195988	0
52910.5	-0.107231	-0.195987	0
52919	-0.105189	-0.195988	0
52930.4	-0.103165	-0.195988	0
52944	-0.101122	-0.195988	0
52961.7	-0.0990985	-0.195985	0
52981.7	-0.0974376	-0.19599	0
53001.7	-0.0961203	-0.195991	0
53021.7	-0.0951085	-0.195986	0
53041.7	-0.0943639	-0.195986	0
53061.7	-0.093543	-0.19599	0
53081.7	-0.0928557	-0.195995	0
53101.7	-0.092703	-0.195988	0
53121.7	-0.0923212	-0.19599	0
53141.7	-0.0920921	-0.195987	0
53161.7	-0.0920348	-0.195991	0
53181.7	-0.0916912	-0.195988	0
53201.7	-0.0915766	-0.195992	0
53221.7	-0.091443	-0.195988	0
53241.7	-0.0913284	-0.19599	0
53261.7	-0.0911948	-0.195991	0
53281.7	-0.0910421	-0.195988	0
53301.7	-0.0911184	-0.195986	0
53321.7	-0.091023	-0.195988	0
53341.7	-0.0910803	-0.19599	0
53361.7	-0.0911184	-0.195984	0
53381.7	-0.0908703	-0.195994	0
53401.7	-0.0910421	-0.195991	0
53421.7	-0.091023	-0.195988	0
53441.7	-0.0907748	-0.195986	0
53461.7	-0.0909084	-0.195989	0
53481.7	-0.0909275	-0.195988	0
53501.7	-0.0909275	-0.195984	0
53521.7	-0.0909466	-0.195983	0
53541.7	-0.0910039	-0.195985	0
53561.7	-0.090813	-0.195986	0
53581.7	-0.090813	-0.195988	0
53601.7	-0.090813	-0.195987	0
53621.7	-0.0907748	-0.19599	0
53641.7	-0.0907175	-0.19599	0
53661.7	-0.0907939	-0.19599	0
53681.7	-0.0908321	-0.195986	0
53701.7	-0.090603	-0.195989	0
53721.7	-0.0906412	-0.19599	0
53741.7	-0.0905839	-0.195979	0
53761.7	-0.0906793	-0.195991	0
53781.7	-0.0906221	-0.195989	0
53801.7	-0.0905839	-0.195991	0
53821.7	-0.0905075	-0.195988	0
53841.7	-0.0904312	-0.195992	0
53861.7	-0.090603	-0.195986	0
53881.7	-0.0903548	-0.195991	0
53901.7	-0.0903548	-0.195995	0
53921.7	-0.0902784	-0.195983	0
53941.7	-0.090393	-0.195988	0
53961.7	-0.0903166	-0.195986	0
53981.7	-0.0902784	-0.195984	0
54001.7	-0.0903357	-0.195988	0
54021.7	-0.0903166	-0.195985	0
54041.7	-0.0903166	-0.195989	0
54061.7	-0.0902593	-0.195986	0
54081.7	-0.0902975	-0.195991	0
54101.7	-0.0902402	-0.195987	0
54121.7	-0.0902212	-0.19599	0
54141.7	-0.0901448	-0.195993	0
54161.7	-0.0901257	-0.195986	0
54177.7	-0.0892666	-0.195987	0
54187.7	-0.0901639	-0.195988	0
54207.7	-0.0900875	-0.195988	0
54227.7	-0.0901066	-0.195985	0
54247.7	-0.0901448	-0.195987	0
54267.7	-0.0900875	-0.195991	0
54287.7	-0.089973	-0.195989	0
54307.7	-0.0899921	-0.195989	0
54327.7	-0.0899348	-0.195989	0
54347.7	-0.0899539	-0.19599	0
54367.7	-0.0899157	-0.195989	0
54387.7	-0.089973	-0.195989	0
54407.7	-0.0899921	-0.195983	0
54427.7	-0.0898966	-0.195992	0
54447.7	-0.0900112	-0.195982	0
54467.7	-0.089973	-0.195983	0
54487.7	-0.0898584	-0.195991	0
54507.7	-0.0899348	-0.195986	0
54527.7	-0.0898966	-0.195988	0
54547.7	-0.0899157	-0.195985	0
54567.7	-0.0900493	-0.19599	0
54587.7	-0.089973	-0.195983	0
54607.7	-0.0898966	-0.195987	0
54627.7	-0.0897248	-0.195988	0
54645	-0.0897821	-0.195988	0