Folder: MASTER-THESIS/EXPERIMENTAL/Data/Battery-cycling/E-measurements/C-cell (part 3)

File: 2024-04-29_E-measurements_sample-Ionic-03_C-cell_Cu-Li_glassfiber-separator_25muL-ionic-electrolyte_outside-glovebox_sigma-0.02_added-OCV-0.1s_04_CP_C01.txt
time/s	Ewe/V	I/mA	error
1309.49	-0.000952002	-0.194685	0
1309.49	-0.00673243	-0.195968	0
1309.5	-0.00995881	-0.195963	0
1309.5	-0.0126125	-0.195965	0
1309.5	-0.0148843	-0.195965	0
1309.5	-0.0174998	-0.195968	0
1309.5	-0.0198098	-0.195968	0
1309.5	-0.0220625	-0.195964	0
1309.5	-0.0245635	-0.19596	0
1309.5	-0.0270262	-0.195968	0
1309.5	-0.0293935	-0.195968	0
1309.5	-0.0316653	-0.195967	0
1309.51	-0.0340899	-0.195971	0
1309.51	-0.0364953	-0.195967	0
1309.51	-0.0391872	-0.195967	0
1309.51	-0.0417454	-0.195962	0
1309.51	-0.0443227	-0.195965	0
1309.51	-0.0466518	-0.195962	0
1309.52	-0.0489236	-0.195965	0
1309.52	-0.0510618	-0.195961	0
1309.52	-0.0532191	-0.19596	0
1309.52	-0.0553191	-0.195965	0
1309.52	-0.0576291	-0.195962	0
1309.52	-0.0598819	-0.195968	0
1309.53	-0.0622491	-0.195963	0
1309.53	-0.0644446	-0.195967	0
1309.53	-0.0669264	-0.195962	0
1309.53	-0.069141	-0.195972	0
1309.53	-0.0715656	-0.195967	0
1309.53	-0.0738565	-0.195966	0
1309.54	-0.0759947	-0.195972	0
1309.54	-0.0782856	-0.195966	0
1309.54	-0.0805574	-0.195961	0
1309.54	-0.0826956	-0.195964	0
1309.55	-0.0849675	-0.195965	0
1309.55	-0.0872584	-0.195968	0
1309.55	-0.0894539	-0.195967	0
1309.55	-0.0914775	-0.195961	0
1309.55	-0.093673	-0.195968	0
1309.56	-0.0959066	-0.195968	0
1309.56	-0.0981976	-0.195962	0
1309.56	-0.100469	-0.195964	0
1309.56	-0.102684	-0.195963	0
1309.57	-0.104822	-0.195967	0
1309.57	-0.106884	-0.19597	0
1309.57	-0.108965	-0.195968	0
1309.57	-0.111122	-0.195966	0
1309.58	-0.113222	-0.195971	0
1309.58	-0.115532	-0.195964	0
1309.58	-0.117747	-0.195963	0
1309.59	-0.11979	-0.195961	0
1309.59	-0.121985	-0.195966	0
1309.59	-0.12418	-0.195967	0
1309.6	-0.126242	-0.195959	0
1309.6	-0.128438	-0.195969	0
1309.6	-0.130519	-0.195966	0
1309.61	-0.132657	-0.195969	0
1309.61	-0.135043	-0.195964	0
1309.61	-0.137258	-0.195966	0
1309.62	-0.13932	-0.195963	0
1309.62	-0.141553	-0.195964	0
1309.63	-0.143901	-0.195968	0
1309.63	-0.146211	-0.195964	0
1309.64	-0.148273	-0.195964	0
1309.64	-0.150469	-0.195963	0
1309.65	-0.152531	-0.195962	0
1309.65	-0.154592	-0.195962	0
1309.66	-0.156807	-0.195965	0
1309.66	-0.159002	-0.195964	0
1309.67	-0.161236	-0.195968	0
1309.68	-0.163508	-0.195969	0
1309.69	-0.165589	-0.195968	0
1309.7	-0.167784	-0.195966	0
1309.7	-0.169808	-0.19597	0
1309.71	-0.171946	-0.195968	0
1309.72	-0.17397	-0.195965	0
1309.74	-0.17607	-0.19597	0
1309.75	-0.178132	-0.195964	0
1309.77	-0.180213	-0.195966	0
1309.87	-0.180232	-0.195969	0
1309.89	-0.178113	-0.19597	0
1309.9	-0.17607	-0.195968	0
1309.92	-0.173951	-0.195965	0
1309.93	-0.17187	-0.19597	0
1309.94	-0.169693	-0.195962	0
1309.95	-0.167517	-0.195966	0
1309.96	-0.165398	-0.195967	0
1309.97	-0.163183	-0.195971	0
1309.98	-0.161141	-0.195967	0
1309.98	-0.158926	-0.195971	0
1309.99	-0.156788	-0.195968	0
1310	-0.154707	-0.195968	0
1310.01	-0.152626	-0.195967	0
1310.02	-0.150335	-0.195968	0
1310.03	-0.148254	-0.195961	0
1310.04	-0.14604	-0.195967	0
1310.05	-0.143863	-0.195963	0
1310.06	-0.141763	-0.195972	0
1310.08	-0.139701	-0.195965	0
1310.09	-0.137563	-0.195967	0
1310.1	-0.135482	-0.195963	0
1310.11	-0.133459	-0.195967	0
1310.13	-0.131416	-0.195976	0
1310.15	-0.129259	-0.195966	0
1310.17	-0.12712	-0.195966	0
1310.19	-0.124982	-0.195964	0
1310.21	-0.122901	-0.195962	0
1310.24	-0.12084	-0.195966	0
1310.28	-0.118797	-0.195962	0
1310.32	-0.116716	-0.195963	0
1310.37	-0.114616	-0.195974	0
1310.45	-0.112573	-0.195964	0
1310.55	-0.110435	-0.195966	0
1310.71	-0.108335	-0.195967	0
1310.98	-0.106235	-0.19597	0
1311.78	-0.104192	-0.195969	0
1316.46	-0.106235	-0.195968	0
1319.57	-0.108278	-0.195965	0
1322.82	-0.110301	-0.195963	0
1326.43	-0.112325	-0.195964	0
1330.49	-0.114406	-0.195972	0
1334.88	-0.116468	-0.19597	0
1339.64	-0.118491	-0.195969	0
1344.99	-0.120515	-0.195962	0
1350.51	-0.122539	-0.195964	0
1357.12	-0.124639	-0.195967	0
1364.48	-0.1267	-0.195964	0
1372.38	-0.128762	-0.19597	0
1381.05	-0.130786	-0.195967	0
1391.46	-0.132848	-0.195968	0
1402.6	-0.134871	-0.19597	0
1414.79	-0.136952	-0.195972	0
1428.09	-0.139071	-0.19597	0
1441.63	-0.141095	-0.195967	0
1456.45	-0.143157	-0.195965	0
1472.01	-0.1452	-0.195973	0
1489.35	-0.147262	-0.195964	0
1509.15	-0.149132	-0.195963	0
1528.99	-0.150889	-0.195969	0
1548.99	-0.152244	-0.195966	0
1568.99	-0.153619	-0.195972	0
1588.99	-0.154726	-0.19597	0
1608.99	-0.155566	-0.195972	0
1628.99	-0.156234	-0.195972	0
1648.99	-0.15675	-0.195968	0
1668.99	-0.15717	-0.195967	0
1688.99	-0.157437	-0.195972	0
1708.99	-0.157723	-0.19597	0
1728.99	-0.157685	-0.195972	0
1748.99	-0.157685	-0.195973	0
1768.99	-0.157742	-0.19597	0
1788.99	-0.157628	-0.195973	0
1808.99	-0.157532	-0.195966	0
1828.99	-0.157227	-0.195971	0
1848.99	-0.15696	-0.195967	0
1868.99	-0.156654	-0.195973	0
1888.99	-0.156444	-0.195968	0
1908.99	-0.156101	-0.195969	0
1928.99	-0.155872	-0.195969	0
1948.99	-0.155681	-0.195972	0
1968.99	-0.155413	-0.19597	0
1988.99	-0.155032	-0.195972	0
2008.99	-0.154631	-0.195968	0
2028.99	-0.154287	-0.195968	0
2048.99	-0.15402	-0.195967	0
2068.99	-0.153657	-0.195975	0
2088.99	-0.153313	-0.195963	0
2108.99	-0.152893	-0.195976	0
2128.99	-0.152645	-0.19597	0
2148.99	-0.152416	-0.195968	0
2168.99	-0.152072	-0.195972	0
2188.99	-0.151729	-0.195962	0
2208.99	-0.151309	-0.19597	0
2228.99	-0.150965	-0.195968	0
2248.99	-0.150698	-0.19597	0
2268.99	-0.150297	-0.19597	0
2288.99	-0.149992	-0.195974	0
2308.99	-0.149743	-0.19597	0
2328.99	-0.149266	-0.195969	0
2348.99	-0.148922	-0.195968	0
2368.99	-0.148655	-0.195967	0
2388.99	-0.148331	-0.195978	0
2408.99	-0.148082	-0.195972	0
2428.99	-0.147739	-0.195961	0
2448.99	-0.147376	-0.195968	0
2468.99	-0.147013	-0.195968	0
2488.99	-0.146784	-0.195963	0
2508.99	-0.146383	-0.195972	0
2528.99	-0.146116	-0.195971	0
2548.99	-0.145887	-0.195968	0
2568.99	-0.145582	-0.195971	0
2588.99	-0.145333	-0.195965	0
2608.99	-0.145047	-0.195971	0
2628.99	-0.144684	-0.195972	0
2648.99	-0.144379	-0.195969	0
2668.99	-0.144054	-0.195961	0
2688.99	-0.14373	-0.195967	0
2708.99	-0.143501	-0.195967	0
2728.99	-0.143252	-0.195971	0
2748.99	-0.142909	-0.195964	0
2768.99	-0.142641	-0.195964	0
2788.99	-0.142355	-0.195973	0
2808.99	-0.142088	-0.195965	0
2828.99	-0.141801	-0.195969	0
2848.99	-0.141515	-0.19597	0
2868.99	-0.141248	-0.19597	0
2888.99	-0.141057	-0.195968	0
2908.99	-0.140713	-0.195963	0
2928.99	-0.140503	-0.195972	0
2948.99	-0.140331	-0.195965	0
2968.99	-0.139969	-0.195975	0
2988.99	-0.139606	-0.19597	0
3008.99	-0.139396	-0.195968	0
3028.99	-0.139014	-0.195967	0
3048.99	-0.138938	-0.195972	0
3068.99	-0.138632	-0.195968	0
3088.99	-0.138403	-0.195967	0
3108.99	-0.138174	-0.195968	0
3109.49	-0.138002	-0.195964	0

File: 2024-04-29_E-measurements_sample-Ionic-04_C-cell_Cu-Li_glassfiber-separator_25muL-ionic-electrolyte_outside-glovebox_sigma-0.02_added-OCV-0.1s_02_MB_C02.txt
time/s	Ewe/V	I/mA	error
60.053	2.73642	-0.0250311	0
60.1738	0.00946585	-8.50061	0
60.1754	0.00956129	-8.37206	0
60.1768	0.00933223	-8.2556	0
60.1784	0.00946585	-8.13469	0
60.1798	0.00948494	-8.02078	0
60.1814	0.0093895	-7.90432	0
60.183	0.00942767	-7.77768	0
60.1846	0.00942767	-7.66632	0
60.1864	0.00940858	-7.53777	0
60.188	0.00935132	-7.42576	0
60.1896	0.00944676	-7.30931	0
60.1914	0.00937041	-7.18967	0
60.1932	0.00937041	-7.07894	0
60.1948	0.00940858	-6.96948	0
60.1968	0.00927497	-6.84411	0
60.1986	0.00942767	-6.72702	0
60.2006	0.00952311	-6.6131	0
60.2024	0.00940858	-6.50301	0
60.2042	0.00931314	-6.39482	0
60.2066	0.00931314	-6.26946	0
60.2086	0.00935132	-6.15936	0
60.2106	0.00933223	-6.05309	0
60.2128	0.00935132	-5.93281	0
60.2152	0.00935132	-5.82017	0
60.2178	0.0093895	-5.69544	0
60.2204	0.00931314	-5.57835	0
60.2228	0.00937041	-5.47016	0
60.2254	0.00935132	-5.35434	0
60.2282	0.00944676	-5.24552	0
60.2306	0.00946585	-5.14434	0
60.2334	0.00950403	-5.0336	0
60.2364	0.0093895	-4.92351	0
60.2394	0.0093895	-4.80578	0
60.2428	0.00931314	-4.69696	0
60.246	0.00935132	-4.58686	0
60.2492	0.00942767	-4.48504	0
60.2528	0.00944676	-4.37431	0
60.2566	0.00937041	-4.26422	0
60.2602	0.0093895	-4.16303	0
60.2642	0.0093895	-4.05549	0
60.2686	0.0093895	-3.93776	0
60.273	0.00940858	-3.95917	0
60.3062	0.00940858	-3.17816	0
60.3126	0.00933223	-3.0754	0
60.3194	0.00937041	-2.97239	0
60.3268	0.00935132	-2.86996	0
60.335	0.00935132	-2.76631	0
60.3438	0.00940858	-2.66458	0
60.3534	0.00933223	-2.56265	0
60.364	0.0093895	-2.46098	0
60.3758	0.00931314	-2.35905	0
60.3888	0.00935132	-2.25802	0
60.4032	0.00937041	-2.15685	0
60.4194	0.00944676	-2.05569	0
60.4372	0.00923679	-1.95491	0
60.4572	0.00946585	-1.85356	0
60.4794	0.00948494	-1.75258	0
60.5044	0.0093895	-1.65148	0
60.5324	0.00935132	-1.55077	0
60.5642	0.00940858	-1.45011	0
60.6006	0.00927497	-1.34971	0
60.643	0.00935132	-1.24906	0
60.6934	0.00942767	-1.14809	0
60.7538	0.00931314	-1.04705	0
60.8284	0.00935132	-0.946716	0
60.923	0.00946585	-0.845998	0
61.0494	0.00935132	-0.745599	0
61.2284	0.00944676	-0.645008	0
61.496	0.0093895	-0.544927	0
61.9372	0.00942767	-0.444336	0
62.7998	0.00933223	-0.343992	0
64.7802	0.00933223	-0.243911	0
65.0534	0.00919861	-0.23547	0
72.4938	0.00940858	-0.135319	0
92.4938	0.00944676	-0.0712236	0
112.494	0.00929405	-0.048982	0
132.494	0.00937041	-0.0385885	0
152.494	0.0093895	-0.0321844	0
172.494	0.00927497	-0.027872	0
192.494	0.0093895	-0.0248481	0
212.494	0.00931314	-0.0225153	0
232.494	0.0093895	-0.020647	0
252.494	0.00935132	-0.0191071	0
272.494	0.00933223	-0.0178204	0
292.494	0.00925588	-0.0168436	0
312.494	0.00935132	-0.0159782	0
332.494	0.00931314	-0.0150708	0
352.494	0.00935132	-0.0143823	0
372.494	0.00937041	-0.0137326	0
392.494	0.00946585	-0.0131185	0
412.494	0.00931314	-0.0126642	0
432.494	0.0092177	-0.012157	0
452.494	0.00944676	-0.0117396	0
472.494	0.00944676	-0.0113559	0
492.494	0.00942767	-0.0109454	0
512.494	0.00929405	-0.010717	0
532.494	0.00933223	-0.0102957	0
552.494	0.00937041	-0.0100387	0
572.494	0.00933223	-0.00975421	0
592.494	0.00933223	-0.00956013	0
612.494	0.00927497	-0.0092636	0
632.494	0.00940858	-0.00904406	0
652.494	0.00933223	-0.00883344	0
672.494	0.00931314	-0.00875453	0
692.494	0.00931314	-0.00852227	0
712.494	0.00942767	-0.0082601	0
732.494	0.00940858	-0.00811501	0
752.494	0.00927497	-0.0079852	0
772.494	0.00937041	-0.00776885	0
792.494	0.00931314	-0.00763585	0
812.494	0.00944676	-0.00749968	0
832.494	0.00927497	-0.00733996	0
852.494	0.00929405	-0.00723496	0
872.494	0.0093895	-0.00705424	0
892.494	0.00937041	-0.00711342	0
912.494	0.00940858	-0.00686652	0
932.494	0.0093895	-0.00677425	0
952.494	0.00935132	-0.00670426	0
972.494	0.00935132	-0.00654454	0
992.494	0.0093895	-0.00644972	0
1012.49	0.00935132	-0.00633136	0
1032.49	0.00925588	-0.0062321	0
1052.49	0.00927497	-0.00613601	0
1072.49	0.00937041	-0.00602274	0
1092.49	0.00929405	-0.0059922	0
1112.49	0.00929405	-0.00590438	0
1132.49	0.00937041	-0.00576312	0
1152.49	0.00929405	-0.00576693	0
1172.49	0.00937041	-0.00570076	0
1192.49	0.00940858	-0.00563458	0
1212.49	0.00940858	-0.00557285	0
1232.49	0.00940858	-0.00541504	0
1252.49	0.00933223	-0.00538832	0
1272.49	0.00940858	-0.00530814	0
1292.49	0.00935132	-0.00532914	0
1312.49	0.00940858	-0.00522732	0
1332.49	0.00937041	-0.0052006	0
1352.49	0.0093895	-0.00504469	0
1372.49	0.00931314	-0.00501542	0
1392.49	0.00935132	-0.00495688	0
1412.49	0.00942767	-0.0049047	0
1432.49	0.0093895	-0.00485634	0
1452.49	0.00937041	-0.00486779	0
1472.49	0.0093895	-0.00482389	0
1492.49	0.00944676	-0.00476852	0
1512.49	0.00933223	-0.00470425	0
1532.49	0.00929405	-0.00464953	0
1552.49	0.00925588	-0.00467562	0
1572.49	0.00937041	-0.00452099	0
1592.49	0.00933223	-0.00448917	0
1612.49	0.00923679	-0.00450884	0
1632.49	0.00935132	-0.00447101	0
1652.49	0.00935132	-0.00444249	0
1672.49	0.00946585	-0.00441249	0
1692.49	0.00937041	-0.00436824	0
1712.49	0.00929405	-0.0043273	0
1732.49	0.00940858	-0.00426935	0
1752.49	0.00927497	-0.00426209	0
1772.49	0.00929405	-0.00426165	0
1792.49	0.00946585	-0.00420911	0
1812.49	0.00927497	-0.00415148	0
1832.49	0.00929405	-0.00413276	0
1852.49	0.00929405	-0.00409297	0
1872.49	0.00937041	-0.00407138	0
1892.49	0.00925588	-0.00402655	0
1912.49	0.00935132	-0.00400809	0
1932.49	0.00929405	-0.00395625	0
1932.67	0.0093895	-0.00392314	0