Folder: MASTER-THESIS/EXPERIMENTAL/Data/Battery-cycling/E-measurements/C-cell (part 2)

File: 2024-04-25_E-measurements_sample-LiPF6-electrolyte-01_C-cell_Cu-Li-Cellgard2400-separator_25muL-LiPF6_outside-glovebox_sigma-0.02_added-OCV-0.1s_04_CP_C02.txt
time/s	Ewe/V	I/mA	error
1054.46	0.00632331	-0.19457	0
1054.46	-0.00928618	-0.195963	0
1054.46	-0.0193457	-0.195964	0
1054.46	-0.0272865	-0.195963	0
1054.46	-0.0340819	-0.195968	0
1054.46	-0.0398847	-0.195957	0
1054.46	-0.0449241	-0.195968	0
1054.47	-0.0494098	-0.195961	0
1054.47	-0.0532466	-0.195961	0
1054.47	-0.0565488	-0.195958	0
1054.47	-0.0597366	-0.195964	0
1054.47	-0.0624089	-0.195965	0
1054.47	-0.0648141	-0.195961	0
1054.47	-0.0670092	-0.195959	0
1054.47	-0.0705978	-0.195966	0
1054.47	-0.0735565	-0.195966	0
1054.47	-0.0759998	-0.195964	0
1054.47	-0.0783668	-0.195963	0
1054.47	-0.0813064	-0.195964	0
1054.47	-0.083616	-0.195964	0
1054.48	-0.0859066	-0.195964	0
1054.48	-0.0880827	-0.195963	0
1054.48	-0.090316	-0.195963	0
1054.48	-0.0923585	-0.195966	0
1054.48	-0.0944964	-0.195966	0
1054.49	-0.0966534	-0.195969	0
1054.49	-0.0988485	-0.195968	0
1054.49	-0.101082	-0.195966	0
1054.5	-0.103334	-0.195966	0
1054.5	-0.105434	-0.195969	0
1054.5	-0.107744	-0.195967	0
1054.51	-0.109786	-0.195964	0
1054.51	-0.112134	-0.195961	0
1054.51	-0.114272	-0.195966	0
1054.52	-0.116505	-0.195966	0
1054.52	-0.118529	-0.195963	0
1054.53	-0.120705	-0.195968	0
1054.53	-0.122843	-0.195961	0
1054.53	-0.124942	-0.195966	0
1054.54	-0.127099	-0.195963	0
1054.54	-0.129256	-0.195966	0
1054.55	-0.131337	-0.19596	0
1054.55	-0.133608	-0.195959	0
1054.55	-0.135708	-0.195963	0
1054.56	-0.137808	-0.195965	0
1054.56	-0.140098	-0.195973	0
1054.57	-0.142198	-0.195965	0
1054.57	-0.144241	-0.195967	0
1054.58	-0.146302	-0.19597	0
1054.58	-0.148459	-0.195966	0
1054.59	-0.150597	-0.195965	0
1054.59	-0.152735	-0.19597	0
1054.6	-0.154835	-0.195965	0
1054.61	-0.156992	-0.195964	0
1054.61	-0.159148	-0.195963	0
1054.62	-0.161267	-0.195964	0
1054.62	-0.163386	-0.195967	0
1054.63	-0.165581	-0.195966	0
1054.64	-0.167719	-0.195966	0
1054.64	-0.169933	-0.195968	0
1054.65	-0.172014	-0.195964	0
1054.66	-0.174095	-0.195967	0
1054.66	-0.176175	-0.195958	0
1054.67	-0.178332	-0.195967	0
1054.68	-0.18047	-0.195961	0
1054.68	-0.182608	-0.195964	0
1054.69	-0.184689	-0.195966	0
1054.7	-0.186788	-0.195963	0
1054.71	-0.188907	-0.195964	0
1054.72	-0.19095	-0.195968	0
1054.72	-0.193011	-0.195968	0
1054.73	-0.195206	-0.195963	0
1054.74	-0.197325	-0.195963	0
1054.75	-0.199425	-0.195964	0
1054.76	-0.201486	-0.195974	0
1054.77	-0.203567	-0.195971	0
1054.78	-0.205667	-0.195962	0
1054.79	-0.207843	-0.19597	0
1054.81	-0.209904	-0.195971	0
1054.82	-0.212004	-0.195964	0
1054.83	-0.214104	-0.195961	0
1054.84	-0.216146	-0.195971	0
1054.86	-0.218208	-0.195966	0
1054.87	-0.220269	-0.195966	0
1054.88	-0.222388	-0.195963	0
1054.9	-0.224431	-0.195967	0
1054.92	-0.226511	-0.195963	0
1054.93	-0.228534	-0.195972	0
1054.95	-0.230825	-0.19596	0
1054.97	-0.232887	-0.195969	0
1054.99	-0.234948	-0.195968	0
1055.01	-0.236991	-0.195963	0
1055.04	-0.239109	-0.195959	0
1055.06	-0.24119	-0.195959	0
1055.09	-0.24329	-0.195964	0
1055.13	-0.245332	-0.195971	0
1055.16	-0.247451	-0.195963	0
1055.21	-0.249608	-0.195973	0
1055.27	-0.25167	-0.19597	0
1055.4	-0.253731	-0.195965	0
1055.75	-0.251689	-0.195968	0
1055.95	-0.249665	-0.195963	0
1056.13	-0.247642	-0.195971	0
1056.33	-0.24558	-0.195967	0
1056.54	-0.243462	-0.19596	0
1056.78	-0.241381	-0.195967	0
1057.04	-0.239338	-0.195963	0
1057.31	-0.237315	-0.195967	0
1057.64	-0.235254	-0.195971	0
1057.99	-0.233211	-0.195968	0
1058.38	-0.231169	-0.195964	0
1058.82	-0.229145	-0.195966	0
1059.32	-0.227103	-0.195964	0
1059.88	-0.22506	-0.195962	0
1060.51	-0.222999	-0.195964	0
1061.23	-0.220956	-0.195969	0
1062.04	-0.218914	-0.195972	0
1062.97	-0.216891	-0.195969	0
1064.07	-0.214867	-0.195964	0
1065.33	-0.212844	-0.195964	0
1066.87	-0.210744	-0.195972	0
1068.81	-0.208664	-0.195964	0
1071.14	-0.206602	-0.19597	0
1073.95	-0.20454	-0.19597	0
1077.8	-0.202498	-0.195971	0
1083.38	-0.200456	-0.19597	0
1092.55	-0.198413	-0.195972	0
1107.85	-0.19639	-0.195965	0
1126.42	-0.194347	-0.195964	0
1143.47	-0.192553	-0.195968	0
1159.32	-0.190511	-0.195971	0
1174.85	-0.188468	-0.195967	0
1189.1	-0.186445	-0.195963	0
1202.77	-0.184383	-0.195971	0
1215.59	-0.182303	-0.195969	0
1229.42	-0.18026	-0.19597	0
1242.46	-0.178237	-0.195971	0
1255.43	-0.176194	-0.195964	0
1269.11	-0.174133	-0.195971	0
1282.56	-0.172071	-0.195966	0
1296.64	-0.170029	-0.195966	0
1310.81	-0.167986	-0.19597	0
1325.44	-0.165944	-0.195968	0
1340.36	-0.163901	-0.195971	0
1356.1	-0.161821	-0.195971	0
1371.8	-0.15974	-0.19597	0
1388.75	-0.15766	-0.195968	0
1406.28	-0.155636	-0.195966	0
1423.6	-0.153613	-0.195968	0
1441.46	-0.15157	-0.19597	0
1459.72	-0.149547	-0.19597	0
1478.76	-0.147505	-0.195968	0
1498.14	-0.145443	-0.195967	0
1516.54	-0.143572	-0.195969	0
1536.46	-0.141893	-0.195977	0
1554.2	-0.140251	-0.195972	0
1572.48	-0.138686	-0.195966	0
1589.94	-0.137025	-0.195971	0
1609.58	-0.135403	-0.195971	0
1628.95	-0.133704	-0.19597	0
1648.95	-0.132329	-0.195969	0
1668.56	-0.130783	-0.195969	0
1688.56	-0.129447	-0.195968	0
1708.32	-0.127901	-0.195975	0
1728.32	-0.126679	-0.195966	0
1748.32	-0.125419	-0.195971	0
1768.32	-0.12416	-0.19597	0
1788.32	-0.123091	-0.195973	0
1808.32	-0.121964	-0.195969	0
1828.32	-0.120876	-0.195971	0
1848.32	-0.11975	-0.195969	0
1868.32	-0.118662	-0.19597	0
1888.32	-0.117784	-0.195971	0
1908.32	-0.116906	-0.195966	0
1928.32	-0.115913	-0.195974	0
1948.32	-0.115016	-0.195965	0
1968.32	-0.114272	-0.195964	0
1988.32	-0.11326	-0.195977	0
2008.32	-0.112458	-0.195969	0
2028.32	-0.111886	-0.195975	0
2048.32	-0.110912	-0.195963	0
2068.32	-0.110244	-0.195968	0
2088.32	-0.109557	-0.195972	0
2108.32	-0.108832	-0.195966	0
2128.32	-0.10803	-0.195968	0
2148.32	-0.1074	-0.195969	0
2168.32	-0.106732	-0.195973	0
2188.32	-0.106255	-0.195972	0
2208.32	-0.10572	-0.19597	0
2228.32	-0.105129	-0.195971	0
2248.32	-0.104594	-0.195975	0
2268.32	-0.104117	-0.195973	0
2288.32	-0.103563	-0.195978	0
2308.32	-0.103086	-0.195972	0
2328.32	-0.10259	-0.19597	0
2348.32	-0.102074	-0.195973	0
2368.32	-0.10154	-0.195965	0
2388.32	-0.101177	-0.195973	0
2408.32	-0.100624	-0.195973	0
2428.32	-0.100261	-0.195974	0
2448.32	-0.0997266	-0.195977	0
2468.32	-0.0993639	-0.195972	0
2488.32	-0.098944	-0.195972	0
2508.32	-0.0984286	-0.195971	0
2528.32	-0.0980659	-0.195971	0
2548.32	-0.0977032	-0.19597	0
2568.32	-0.0972451	-0.195968	0
2588.32	-0.096997	-0.195964	0
2608.32	-0.0965579	-0.195965	0
2628.32	-0.0961571	-0.195974	0
2648.32	-0.0958326	-0.195977	0
2668.32	-0.0955844	-0.19597	0
2688.32	-0.0951645	-0.195964	0
2708.32	-0.0947636	-0.195967	0
2728.32	-0.0943628	-0.195966	0
2748.32	-0.0942101	-0.195971	0
2768.32	-0.0939047	-0.195968	0
2788.32	-0.0936374	-0.195973	0
2808.32	-0.0932175	-0.195971	0
2828.32	-0.0927021	-0.195968	0
2848.32	-0.0924539	-0.19597	0
2854.46	-0.0922631	-0.195972	0

File: 2024-04-26_E-measurements_sample-Ionic-electrolyte-03_C-cell_Cu-Li-Cellgard2400-separator_25muL-ionic-electrolyte_outside-glovebox_sigma-0.02_added-OCV-0.1s_02_MB_C01.txt
time/s	Ewe/V	I/mA	error
60.053	2.51254	-0.0250252	0
60.1132	0.00939951	-1.00885	0
60.119	0.00938042	-0.958356	0
60.1258	0.00936133	-0.907463	0
60.1338	0.00934224	-0.856252	0
60.143	0.00945679	-0.805786	0
60.1538	0.00945679	-0.755377	0
60.1666	0.0094377	-0.704688	0
60.1818	0.00947588	-0.654158	0
60.2	0.00932315	-0.603839	0
60.2222	0.00949497	-0.553558	0
60.2496	0.00949497	-0.503493	0
60.2844	0.00939951	-0.453332	0
60.3298	0.00949497	-0.40321	0
60.3914	0.0094186	-0.353151	0
60.4788	0.00949497	-0.303144	0
60.6104	0.00945679	-0.253136	0
60.8272	0.00938042	-0.203116	0
61.2346	0.00951406	-0.15307	0
62.2582	0.00953315	-0.103062	0
65.0528	0.00947588	-0.0652923	0
65.0534	0.0094186	-0.0653496	0
75.0534	0.0094186	-0.0384572	0
85.0534	0.00945679	-0.0314213	0
95.0534	0.00934224	-0.0280892	0
105.053	0.00939951	-0.0260988	0
115.053	0.0094186	-0.0246934	0
125.053	0.00945679	-0.0236661	0
135.053	0.00939951	-0.0228342	0
145.053	0.00949497	-0.0221271	0
155.053	0.00945679	-0.0215109	0
165.053	0.0094377	-0.0209788	0
175.053	0.00928497	-0.0205002	0
185.053	0.00945679	-0.0200635	0
195.053	0.00945679	-0.0196466	0
205.053	0.0094186	-0.0192685	0
215.053	0.00934224	-0.0189395	0
225.053	0.00945679	-0.0186117	0
235.053	0.00939951	-0.0183182	0
245.053	0.0094377	-0.0180439	0
255.053	0.00945679	-0.0177683	0
265.053	0.00945679	-0.0175067	0
275.053	0.00953315	-0.0172572	0
285.053	0.00938042	-0.0170172	0
295.053	0.00949497	-0.0167925	0
305.053	0.00939951	-0.0165946	0
315.053	0.00939951	-0.0163884	0
325.053	0.00955224	-0.016205	0
335.053	0.00936133	-0.0160001	0
345.053	0.00945679	-0.01582	0
355.053	0.00957133	-0.0156239	0
365.053	0.00939951	-0.0154769	0
375.053	0.00947588	-0.0152853	0
385.053	0.00951406	-0.0151211	0
395.053	0.00947588	-0.014962	0
405.053	0.00936133	-0.0148238	0
415.053	0.0094186	-0.0146794	0
425.053	0.00951406	-0.0145342	0
435.053	0.0094377	-0.0143681	0
445.053	0.00947588	-0.0142427	0
455.053	0.00938042	-0.0141046	0
465.053	0.00947588	-0.0139773	0
475.053	0.0094186	-0.0138462	0
485.053	0.00947588	-0.0137501	0
495.053	0.00938042	-0.0136189	0
505.053	0.00951406	-0.0134967	0
515.053	0.00945679	-0.0133936	0
525.053	0.0094186	-0.0132733	0
535.053	0.0094377	-0.0131658	0
545.053	0.00939951	-0.0130563	0
555.053	0.0094186	-0.0129544	0
565.053	0.00939951	-0.0128494	0
575.053	0.0094377	-0.0127393	0
585.053	0.00939951	-0.0126356	0
595.053	0.00947588	-0.0125407	0
605.053	0.00945679	-0.0124427	0
615.053	0.00938042	-0.0123358	0
625.053	0.0094377	-0.012246	0
635.053	0.00947588	-0.0121588	0
645.053	0.0094377	-0.0120493	0
655.053	0.0094186	-0.0119647	0
665.053	0.00947588	-0.0118756	0
675.053	0.00938042	-0.0117661	0
685.053	0.0094377	-0.0116973	0
695.053	0.00938042	-0.0116012	0
705.053	0.00947588	-0.0115147	0
715.053	0.00938042	-0.0114198	0
725.053	0.00939951	-0.0113371	0
735.053	0.00945679	-0.0112588	0
745.053	0.0094377	-0.0111811	0
755.053	0.00947588	-0.0110723	0
765.053	0.00949497	-0.0110067	0
775.053	0.00945679	-0.0109399	0
785.053	0.00939951	-0.0108483	0
795.053	0.0094186	-0.010784	0
805.053	0.00947588	-0.0106923	0
815.053	0.0094377	-0.0106185	0
825.053	0.00947588	-0.0105478	0
835.053	0.0094377	-0.0104746	0
845.053	0.00949497	-0.0103874	0
855.053	0.0094377	-0.0103403	0
865.053	0.0094186	-0.0102557	0
875.053	0.00949497	-0.0101793	0
885.053	0.0094377	-0.010108	0
895.053	0.00939951	-0.0100265	0
905.053	0.0094186	-0.00996924	0
915.053	0.00953315	-0.00989732	0
925.053	0.00949497	-0.0098203	0
935.053	0.00947588	-0.00976747	0
945.053	0.0094377	-0.00968536	0
955.053	0.00934224	-0.00963954	0
965.053	0.00957133	-0.00956125	0
975.053	0.0094377	-0.00948741	0
985.053	0.00945679	-0.00941867	0
995.053	0.0094186	-0.00934802	0
1005.05	0.00939951	-0.00926527	0
1015.05	0.00945679	-0.00921435	0
1025.05	0.00945679	-0.00916534	0
1035.05	0.00939951	-0.00909405	0
1045.05	0.00945679	-0.00903104	0
1055.05	0.0094377	-0.00895784	0
1065.05	0.00957133	-0.00889101	0
1075.05	0.00945679	-0.00883754	0
1085.05	0.0094377	-0.00879872	0
1095.05	0.0094377	-0.00871152	0
1105.05	0.00939951	-0.0086485	0
1115.05	0.00945679	-0.00861286	0
1125.05	0.0094186	-0.00852629	0
1135.05	0.0094377	-0.00848556	0
1145.05	0.00945679	-0.00843082	0
1155.05	0.00936133	-0.00839199	0
1165.05	0.00936133	-0.00831434	0
1175.05	0.00945679	-0.00826215	0
1185.05	0.00938042	-0.00820995	0
1195.05	0.00947588	-0.0081724	0
1205.05	0.00939951	-0.00807756	0
1215.05	0.00949497	-0.0080381	0
1225.05	0.00932315	-0.0079859	0
1235.05	0.0094186	-0.00795344	0
1245.05	0.00945679	-0.00789998	0
1255.05	0.0094186	-0.0078446	0
1265.05	0.00945679	-0.00780132	0
1275.05	0.00939951	-0.00775676	0
1285.05	0.0094186	-0.00770202	0
1295.05	0.00945679	-0.00766002	0
1305.05	0.00939951	-0.00760846	0
1315.05	0.00947588	-0.00757472	0
1325.05	0.00939951	-0.00752508	0
1335.05	0.0094186	-0.00745124	0
1345.05	0.00936133	-0.00742515	0
1355.05	0.00934224	-0.0073685	0
1365.05	0.00945679	-0.00732903	0
1375.05	0.00939951	-0.00728002	0
1385.05	0.00938042	-0.00724629	0
1395.05	0.00947588	-0.00718773	0
1405.05	0.00947588	-0.00715718	0
1415.05	0.00939951	-0.00712026	0
1425.05	0.00945679	-0.00706107	0
1435.05	0.0094377	-0.00704134	0
1445.05	0.00949497	-0.00699678	0
1455.05	0.00939951	-0.00694777	0
1465.05	0.00938042	-0.00690067	0
1475.05	0.0094377	-0.00687075	0
1485.05	0.0094186	-0.00684402	0
1495.05	0.00951406	-0.00679883	0
1505.05	0.00953315	-0.00675491	0
1515.05	0.00934224	-0.00673136	0
1525.05	0.00945679	-0.00667535	0
1535.05	0.00949497	-0.00664734	0
1545.05	0.00945679	-0.00661488	0
1555.05	0.00953315	-0.00658687	0
1565.05	0.00947588	-0.00654295	0
1575.05	0.0094186	-0.0064984	0
1585.05	0.0094377	-0.00646785	0
1595.05	0.0094186	-0.00642393	0
1605.05	0.0094377	-0.00639338	0
1615.05	0.0094377	-0.00635773	0
1625.05	0.00951406	-0.00632081	0
1635.05	0.00939951	-0.00628899	0
1645.05	0.00924679	-0.00625526	0
1655.05	0.00945679	-0.00621388	0
1665.05	0.00949497	-0.0061846	0
1675.05	0.00947588	-0.00615469	0
1685.05	0.00945679	-0.00612477	0
1695.05	0.00953315	-0.00608276	0
1705.05	0.00947588	-0.00604712	0
1715.05	0.00934224	-0.00603885	0
1725.05	0.00938042	-0.00598474	0
1735.05	0.00955224	-0.00596183	0
1745.05	0.00945679	-0.00592491	0
1755.05	0.00945679	-0.00588545	0
1765.05	0.00949497	-0.00587399	0
1775.05	0.00936133	-0.00581607	0
1785.05	0.00949497	-0.00581098	0
1795.05	0.00947588	-0.00576006	0
1805.05	0.00947588	-0.00574351	0
1815.05	0.0094186	-0.00571614	0
1825.05	0.00945679	-0.00568686	0
1835.05	0.00938042	-0.00566776	0
1845.05	0.00947588	-0.00562066	0
1855.05	0.0094186	-0.00557865	0
1865.05	0.00945679	-0.0055672	0
1875.05	0.00951406	-0.00553474	0
1885.05	0.0094186	-0.00549082	0
1895.05	0.00939951	-0.00546536	0
1905.05	0.00947588	-0.00543735	0
1915.05	0.00936133	-0.00541953	0
1925.05	0.00932315	-0.00540871	0
1935.05	0.00939951	-0.00537179	0
1945.05	0.00947588	-0.00532342	0
1955.05	0.00939951	-0.00531323	0
1965.05	0.00945679	-0.00528204	0
1975.05	0.00936133	-0.00525213	0
1985.05	0.00945679	-0.00522667	0
1995.05	0.00947588	-0.00518848	0
2005.05	0.00949497	-0.0051783	0
2015.05	0.00939951	-0.00514774	0
2025.05	0.00947588	-0.00511592	0
2035.05	0.00945679	-0.00509428	0
2045.05	0.00945679	-0.00505927	0
2055.05	0.00932315	-0.00505163	0
2065.05	0.0094186	-0.00501599	0
2075.05	0.00936133	-0.00498862	0
2085.05	0.00947588	-0.00496507	0
2095.05	0.00938042	-0.00494088	0
2105.05	0.00947588	-0.00490842	0
2115.05	0.00949497	-0.00489123	0
2125.05	0.00945679	-0.00486577	0
2135.05	0.00939951	-0.00484095	0
2145.05	0.00949497	-0.0048174	0
2155.05	0.00938042	-0.00478303	0
2165.05	0.00945679	-0.00474866	0
2175.05	0.0094186	-0.00473656	0
2185.05	0.00939951	-0.00470665	0
2195.05	0.00949497	-0.00467291	0
2205.05	0.0094186	-0.00467482	0
2215.05	0.00945679	-0.00464554	0
2225.05	0.00945679	-0.00461945	0
2235.05	0.00949497	-0.00459844	0
2245.05	0.00939951	-0.00457871	0
2255.05	0.00934224	-0.00454052	0
2265.05	0.00947588	-0.00452397	0
2275.05	0.00949497	-0.00450551	0
2285.05	0.0094377	-0.00448931	0
2295.05	0.00947588	-0.00446117	0
2305.05	0.00947588	-0.00444156	0
2315.05	0.00936133	-0.00443768	0
2325.05	0.00939951	-0.00441215	0
2335.05	0.00949497	-0.00437249	0
2345.05	0.00945679	-0.0043651	0
2355.05	0.0094186	-0.00433697	0
2365.05	0.00934224	-0.00430456	0
2375.05	0.00949497	-0.0042896	0
2385.05	0.00939951	-0.00427101	0
2395.05	0.00945679	-0.00425701	0
2405.05	0.00949497	-0.00423332	0
2415.05	0.0094377	-0.00421422	0
2425.05	0.0094186	-0.00419252	0
2435.05	0.0094186	-0.00417183	0
2445.05	0.00938042	-0.00414891	0
2455.05	0.00945679	-0.00413185	0
2465.05	0.00949497	-0.00410415	0
2475.05	0.00947588	-0.00408034	0
2485.05	0.00945679	-0.00406061	0
2495.05	0.00939951	-0.00405583	0
2505.05	0.00936133	-0.00401744	0
2515.05	0.00936133	-0.00399962	0
2525.05	0.00939951	-0.00399109	0
2535.05	0.00947588	-0.00396906	0
2545.05	0.0094377	-0.00394691	0
2551.82	0.00945679	-0.00391896	0
2551.82	0.00945679	-0.00393328	0

File: 2024-04-26_E-measurements_sample-Ionic-electrolyte-03_C-cell_Cu-Li-Cellgard2400-separator_25muL-ionic-electrolyte_outside-glovebox_sigma-0.02_added-OCV-0.1s_04_CP_C01.txt
time/s	Ewe/V	I/mA	error
2551.97	-0.0880237	-0.194479	0
2551.98	-0.213145	-0.195962	0
2551.98	-0.257608	-0.195958	0
2551.99	-0.292773	-0.19596	0
2551.99	-0.322212	-0.19596	0
2552	-0.355316	-0.195964	0
2552.01	-0.388839	-0.195965	0
2552.02	-0.415834	-0.195962	0
2552.03	-0.444967	-0.195963	0
2552.05	-0.471637	-0.19596	0
2552.07	-0.497964	-0.195963	0
2552.09	-0.523928	-0.195963	0
2552.12	-0.550426	-0.195963	0
2552.15	-0.575951	-0.195965	0
2552.18	-0.601323	-0.19596	0
2552.21	-0.626351	-0.195964	0
2552.24	-0.651341	-0.195955	0
2552.28	-0.676541	-0.19596	0
2552.31	-0.701474	-0.195963	0
2552.35	-0.727094	-0.195962	0
2552.39	-0.751989	-0.195965	0
2552.43	-0.776941	-0.195961	0
2552.48	-0.802008	-0.195963	0
2552.52	-0.826979	-0.195969	0
2552.57	-0.851682	-0.195961	0
2552.62	-0.876482	-0.195962	0
2552.67	-0.901033	-0.195968	0
2552.72	-0.925698	-0.195961	0
2552.78	-0.950918	-0.195962	0
2552.84	-0.97566	-0.195968	0
2552.91	-1.00071	-0.195963	0
2552.98	-1.02549	-0.195963	0
2553.05	-1.04994	-0.195967	0
2553.13	-1.07463	-0.195963	0
2553.21	-1.09889	-0.195965	0
2553.3	-1.12329	-0.195965	0
2553.39	-1.14809	-0.195958	0
2553.48	-1.1727	-0.195968	0
2553.59	-1.19738	-0.195959	0
2553.69	-1.22148	-0.195968	0
2553.81	-1.24549	-0.19596	0
2553.94	-1.2698	-0.195965	0
2554.09	-1.29406	-0.195968	0
2554.25	-1.31819	-0.19596	0
2554.43	-1.34223	-0.195966	0
2554.64	-1.36599	-0.195963	0
2554.87	-1.38997	-0.195965	0
2555.13	-1.41407	-0.195963	0
2555.39	-1.43787	-0.195963	0
2555.66	-1.46191	-0.195964	0
2555.92	-1.48564	-0.195968	0
2556.19	-1.50958	-0.195958	0
2556.45	-1.5334	-0.195959	0
2556.71	-1.55731	-0.195967	0
2556.97	-1.58121	-0.195959	0
2557.24	-1.60538	-0.195965	0
2557.51	-1.62966	-0.195967	0
2557.77	-1.65373	-0.195957	0
2558.04	-1.67746	-0.195964	0
2558.3	-1.70139	-0.195965	0
2558.57	-1.72517	-0.195967	0
2558.84	-1.74888	-0.195963	0
2559.11	-1.77294	-0.195968	0
2559.39	-1.79684	-0.19596	0
2559.67	-1.8208	-0.195965	0
2559.95	-1.84489	-0.195959	0
2560.23	-1.86887	-0.195965	0
2560.52	-1.89266	-0.195969	0
2560.81	-1.91645	-0.195964	0
2561.1	-1.9401	-0.195962	0
2561.39	-1.96385	-0.19596	0
2561.69	-1.98779	-0.195968	0
2561.98	-2.01158	-0.195961	0
2562.29	-2.03536	-0.195964	0
2562.59	-2.05913	-0.195961	0
2562.9	-2.08292	-0.195969	0
2563.21	-2.10678	-0.195968	0
2563.53	-2.13071	-0.195963	0
2563.86	-2.15451	-0.195966	0
2564.19	-2.17851	-0.195967	0
2564.51	-2.20239	-0.195964	0
2564.82	-2.22638	-0.195963	0
2565.13	-2.25053	-0.195962	0
2565.43	-2.27461	-0.195961	0
2565.72	-2.29893	-0.195967	0
2566	-2.32272	-0.195962	0
2566.28	-2.34647	-0.195968	0
2566.55	-2.37046	-0.195966	0
2566.81	-2.39423	-0.195972	0
2567.08	-2.41859	-0.195969	0
2567.33	-2.44274	-0.195967	0
2567.59	-2.46685	-0.195963	0
2567.83	-2.49074	-0.195961	0
2568.08	-2.51462	-0.19597	0
2568.32	-2.53887	-0.195966	0
2568.57	-2.56309	-0.195963	0
2568.8	-2.58705	-0.195965	0
2569.04	-2.61141	-0.195969	0
2569.27	-2.63556	-0.195967	0
2569.5	-2.65967	-0.195965	0
2569.73	-2.68358	-0.195964	0
2569.95	-2.70769	-0.195961	0
2570.17	-2.73161	-0.195963	0
2570.39	-2.75591	-0.195961	0
2570.61	-2.77993	-0.195962	0
2570.82	-2.80377	-0.195963	0
2571.04	-2.82794	-0.195967	0
2571.25	-2.85202	-0.195968	0
2571.46	-2.87624	-0.195958	0
2571.66	-2.90011	-0.195966	0
2571.86	-2.92389	-0.195968	0
2572.07	-2.94799	-0.195963	0
2572.27	-2.972	-0.195963	0
2572.47	-2.99613	-0.195965	0
2572.67	-3.02002	-0.195965	0
2572.88	-3.04432	-0.195965	0
2573.08	-3.06813	-0.195961	0
2573.28	-3.09214	-0.195967	0
2573.48	-3.11633	-0.195972	0
2573.68	-3.1406	-0.195967	0
2573.88	-3.16455	-0.195967	0
2574.08	-3.18846	-0.195964	0
2574.29	-3.2128	-0.195967	0
2574.49	-3.23687	-0.195965	0
2574.69	-3.26085	-0.195965	0
2574.9	-3.28498	-0.195961	0
2575.11	-3.30915	-0.195966	0
2575.32	-3.33343	-0.195968	0
2575.53	-3.35751	-0.195964	0
2575.73	-3.3813	-0.195967	0
2575.95	-3.40541	-0.195961	0
2576.16	-3.42948	-0.195967	0
2576.37	-3.45334	-0.19596	0
2576.59	-3.47728	-0.195962	0
2576.81	-3.50138	-0.195972	0
2577.03	-3.52539	-0.195967	0
2577.25	-3.54924	-0.195961	0
2577.48	-3.57343	-0.195966	0
2577.71	-3.59723	-0.195961	0
2577.94	-3.62121	-0.195965	0
2578.18	-3.64519	-0.195965	0
2578.42	-3.66904	-0.195963	0
2578.66	-3.69284	-0.195965	0
2578.92	-3.71669	-0.195967	0
2579.18	-3.74084	-0.195968	0
2579.44	-3.76445	-0.195963	0
2579.71	-3.78822	-0.195962	0
2579.99	-3.81239	-0.195966	0
2580.27	-3.83635	-0.195959	0
2580.56	-3.86033	-0.195961	0
2580.84	-3.88404	-0.195961	0
2581.12	-3.90796	-0.195968	0
2581.41	-3.93186	-0.195965	0
2581.69	-3.95586	-0.195965	0
2581.96	-3.97974	-0.195959	0
2582.24	-4.00372	-0.195966	0
2582.51	-4.02753	-0.19596	0
2582.78	-4.05158	-0.195967	0
2583.04	-4.07554	-0.195966	0
2583.3	-4.09952	-0.195973	0
2583.57	-4.12373	-0.195962	0
2583.83	-4.14772	-0.195961	0
2584.08	-4.17178	-0.195964	0
2584.34	-4.19578	-0.195961	0
2584.59	-4.22028	-0.195958	0
2584.84	-4.24443	-0.195966	0
2585.1	-4.26871	-0.195963	0
2585.35	-4.29282	-0.195965	0
2585.59	-4.31667	-0.195963	0
2585.84	-4.34051	-0.195964	0
2586.09	-4.36462	-0.195967	0
2586.34	-4.38893	-0.195969	0
2586.58	-4.41291	-0.195967	0
2586.83	-4.43688	-0.195967	0
2587.08	-4.46088	-0.195967	0
2587.33	-4.48492	-0.19596	0
2587.58	-4.50905	-0.195972	0
2587.83	-4.53303	-0.195965	0
2588.08	-4.55683	-0.195964	0
2588.34	-4.58066	-0.195967	0
2588.6	-4.60458	-0.195964	0
2588.87	-4.62863	-0.195963	0
2589.15	-4.65288	-0.195966	0
2589.42	-4.6768	-0.195972	0
2589.71	-4.70089	-0.195971	0
2589.99	-4.72495	-0.195963	0
2590.27	-4.74929	-0.195967	0
2590.56	-4.77359	-0.195968	0
2590.84	-4.7974	-0.195961	0
2591.13	-4.82168	-0.19596	0
2591.42	-4.84543	-0.195964	0
2591.71	-4.86966	-0.195967	0
2592.01	-4.89369	-0.195965	0
2592.32	-4.91777	-0.195965	0
2592.63	-4.94188	-0.195965	0
2592.95	-4.9659	-0.195956	0
2593.27	-4.98997	-0.195959	0
2593.6	-5.01391	-0.195963	0
2593.95	-5.03808	-0.195964	0
2594.29	-5.06179	-0.195966	0
2594.65	-5.08583	-0.19596	0
2595.02	-5.10967	-0.195969	0
2595.4	-5.13382	-0.195961	0
2595.79	-5.15774	-0.195961	0
2596.19	-5.18151	-0.195968	0
2596.61	-5.20537	-0.195959	0
2597.04	-5.22956	-0.195961	0
2597.5	-5.25345	-0.195958	0
2597.97	-5.27737	-0.195965	0
2598.47	-5.3014	-0.195967	0
2599	-5.32509	-0.195969	0
2599.57	-5.3488	-0.195966	0
2600.18	-5.37275	-0.19596	0
2600.83	-5.39655	-0.195961	0
2601.55	-5.42036	-0.195964	0
2602.33	-5.44437	-0.195967	0
2603.15	-5.46803	-0.195963	0
2604.03	-5.49182	-0.195964	0
2604.98	-5.5153	-0.195962	0
2606.08	-5.53893	-0.19596	0
2607.42	-5.56247	-0.195968	0
2608.76	-5.58616	-0.195963	0
2610.12	-5.61001	-0.195965	0
2611.55	-5.63347	-0.195961	0
2613.19	-5.65716	-0.195964	0
2615.36	-5.68091	-0.195962	0
2618.4	-5.70441	-0.19597	0
2623.62	-5.7279	-0.195965	0
2643.77	-5.74126	-0.195965	0
2656.72	-5.7178	-0.19597	0
2665.87	-5.69431	-0.195965	0
2673.6	-5.67074	-0.195972	0
2680.48	-5.64724	-0.195964	0
2686.59	-5.6237	-0.195965	0
2692.27	-5.60012	-0.195968	0
2697.36	-5.57656	-0.195964	0
2701.74	-5.55304	-0.195961	0
2705.83	-5.52927	-0.195967	0
2709.64	-5.50549	-0.19597	0
2713.17	-5.48198	-0.195965	0
2716.45	-5.45843	-0.195965	0
2719.52	-5.43471	-0.195965	0
2722.33	-5.41116	-0.195968	0
2724.93	-5.38756	-0.195967	0
2727.3	-5.36396	-0.195965	0
2729.43	-5.34023	-0.195968	0
2731.3	-5.31671	-0.195967	0
2732.94	-5.29287	-0.195967	0
2734.32	-5.26921	-0.195967	0
2735.44	-5.24554	-0.195963	0
2736.34	-5.22168	-0.195968	0
2737.03	-5.19797	-0.195965	0
2737.55	-5.17399	-0.195961	0
2737.95	-5.1498	-0.19597	0
2738.24	-5.12592	-0.195968	0
2738.46	-5.10173	-0.195963	0
2738.64	-5.07735	-0.195969	0
2738.77	-5.05339	-0.195962	0
2738.88	-5.02932	-0.195961	0
2738.97	-5.00482	-0.195967	0
2739.05	-4.98048	-0.195972	0
2739.12	-4.95595	-0.195965	0
2739.17	-4.9313	-0.19597	0
2739.23	-4.90654	-0.195963	0
2739.28	-4.88186	-0.195961	0
2739.32	-4.85658	-0.195966	0
2739.36	-4.8315	-0.195963	0
2739.41	-4.80694	-0.195965	0
2739.45	-4.78201	-0.195971	0
2739.48	-4.75673	-0.19597	0
2739.52	-4.73209	-0.195968	0
2739.56	-4.70649	-0.195965	0
2739.6	-4.68098	-0.195967	0
2739.64	-4.65538	-0.195965	0
2739.68	-4.62959	-0.195968	0
2739.72	-4.60471	-0.19596	0
2739.76	-4.5803	-0.195962	0
2739.82	-4.55559	-0.195969	0
2739.9	-4.53108	-0.195967	0
2740.25	-4.50706	-0.195965	0
2741.43	-4.48318	-0.195963	0
2751.63	-4.45964	-0.195965	0
2786.89	-4.43614	-0.195967	0
2850.24	-4.41264	-0.195968	0
3029.54	-4.39989	-0.195965	0
3259.23	-4.41168	-0.195963	0
3489.23	-4.42365	-0.195968	0
3716.65	-4.43694	-0.195967	0
3819.68	-4.4429	-0.195964	0
3997.89	-4.45223	-0.195965	0
4101.89	-4.45884	-0.195968	0
4229.01	-4.46844	-0.195967	0
4301.43	-4.47436	-0.195965	0
4340.45	-4.47745	-0.19597	0
4346.1	-4.47845	-0.195968	0
4351.97	-4.47907	-0.195961	0