Folder: MASTER-THESIS/EXPERIMENTAL/Data/Battery-cycling/E-measurements/C-cell

Note: EXPERIMENTAL/Data/Battery-cycling/E-measurements/C-cell/2024-04-25_E-measurements_sample-LiFSI-electrolyte-01_C-cell_Cu-Li-Cellgard2400-separator_25muL-LiFSI-in-DME_outside-glovebox_sigma-0.02_added-OCV-0.1s_01_OCV_C02.txt
time/s	<Ewe/V>	error	
9.999999747378752E+000	2.5595887E+000	0
1.999999949475750E+001	2.5597346E+000	0
2.999999924213625E+001	2.5598748E+000	0
3.999999898951501E+001	2.5600097E+000	0
4.999999873689376E+001	2.5601511E+000	0
5.999979848427756E+001	2.5602882E+000	0

Note: EXPERIMENTAL/Data/Battery-cycling/E-measurements/C-cell/2024-04-26_E-measurements_sample-Ionic-electrolyte-03_C-cell_Cu-Li-Cellgard2400-separator_25muL-ionic-electrolyte_outside-glovebox_sigma-0.02_added-OCV-0.1s_01_OCV_C01.txt
time/s	<Ewe/V>	error	
9.999999747378752E+000	2.6336925E+000	0
1.999999949475750E+001	2.6347237E+000	0
2.999999924213625E+001	2.6357164E+000	0
3.999999898951501E+001	2.6366985E+000	0
4.999999873689376E+001	2.6376855E+000	0
5.999979848427756E+001	2.6386139E+000	0

Note: EXPERIMENTAL/Data/Battery-cycling/E-measurements/C-cell/2024-04-29_E-measurements_sample-Ionic-03_C-cell_Cu-Li_glassfiber-separator_25muL-ionic-electrolyte_outside-glovebox_sigma-0.02_added-OCV-0.1s_01_OCV_C01.txt
time/s	<Ewe/V>	error	
9.999999747378752E+000	2.7389050E+000	0
1.999999949475750E+001	2.7386026E+000	0
2.999999924213625E+001	2.7383111E+000	0
3.999999898951501E+001	2.7380114E+000	0
4.999999873689376E+001	2.7377086E+000	0
5.999979848427756E+001	2.7373924E+000	0

File: 2024-04-25_E-measurements_sample-Ionic-electrolyte-01_C-cell_Cu-Li-Cellgard2400-separator_25muL-ionic-electrolyte_outside-glovebox_sigma-0.02_added-OCV-0.1s_02_MB_C01.txt
time/s	Ewe/V	I/mA	error
60.053	2.20598	-0.0250252	0
60.1132	0.00939951	-0.174935	0
60.1916	0.00945679	-0.124927	0
60.46	0.00945679	-0.0749067	0
65.0528	0.00953315	-0.0270211	0
65.0534	0.00949497	-0.0270211	0
75.0534	0.0094377	-0.0193271	0
85.0534	0.0094377	-0.017205	0
95.0534	0.0094377	-0.0160663	0
105.053	0.00934224	-0.0152618	0
115.053	0.00947588	-0.0146666	0
125.053	0.00938042	-0.0141574	0
135.053	0.0094377	-0.0137061	0
145.053	0.0094186	-0.0132262	0
155.053	0.00947588	-0.0128672	0
165.053	0.00951406	-0.012612	0
175.053	0.0094186	-0.0123268	0
185.053	0.0094377	-0.01205	0
195.053	0.00939951	-0.0118049	0
205.053	0.00939951	-0.0115758	0
215.053	0.00938042	-0.0113447	0
225.053	0.00953315	-0.0111347	0
235.053	0.00945679	-0.0109431	0
245.053	0.00932315	-0.0107388	0
255.053	0.00953315	-0.0105746	0
265.053	0.00939951	-0.0104008	0
275.053	0.0094186	-0.0102251	0
285.053	0.0094377	-0.0100768	0
295.053	0.0094377	-0.00992723	0
305.053	0.0094186	-0.00979166	0
315.053	0.0094186	-0.009665	0
325.053	0.00951406	-0.00954852	0
335.053	0.00949497	-0.00942185	0
345.053	0.00947588	-0.00930856	0
355.053	0.00939951	-0.0092169	0
365.053	0.00939951	-0.00911378	0
375.053	0.00951406	-0.00900367	0
385.053	0.00945679	-0.00892474	0
395.053	0.00939951	-0.00882863	0
405.053	0.00936133	-0.00873952	0
415.053	0.00936133	-0.00865996	0
425.053	0.00951406	-0.0085874	0
435.053	0.00936133	-0.00851038	0
445.053	0.00947588	-0.00844164	0
455.053	0.00947588	-0.00838181	0
465.053	0.00949497	-0.00832007	0
475.053	0.00951406	-0.00825896	0
485.053	0.00947588	-0.00819277	0
495.053	0.00953315	-0.00812212	0
505.053	0.00939951	-0.00806101	0
515.053	0.0094186	-0.00799863	0
525.053	0.00936133	-0.00792925	0
535.053	0.00947588	-0.00786433	0
545.053	0.00939951	-0.00780514	0
555.053	0.00936133	-0.00773894	0
565.053	0.00938042	-0.00766893	0
575.053	0.00939951	-0.00761801	0
585.053	0.0094186	-0.00753844	0
595.053	0.00951406	-0.0074888	0
605.053	0.00939951	-0.00742324	0
615.053	0.0094186	-0.00736086	0
625.053	0.00949497	-0.0072953	0
635.053	0.00945679	-0.00724756	0
645.053	0.00938042	-0.00718773	0
655.053	0.00945679	-0.00713108	0
665.053	0.0094377	-0.0070738	0
675.053	0.00953315	-0.00702097	0
685.053	0.0094377	-0.00697259	0
695.053	0.00939951	-0.00692358	0
705.053	0.00947588	-0.00686248	0
715.053	0.0094377	-0.00681028	0
725.053	0.00951406	-0.00676764	0
735.053	0.00928497	-0.00671927	0
745.053	0.00934224	-0.00666198	0
755.053	0.0094186	-0.00660088	0
765.053	0.00932315	-0.00656332	0
775.053	0.00938042	-0.00650795	0
785.053	0.00945679	-0.00647358	0
795.053	0.0094377	-0.00641438	0
805.053	0.0094377	-0.00636664	0
815.053	0.00945679	-0.00632145	0
825.053	0.0094377	-0.00629726	0
835.053	0.00947588	-0.00623616	0
845.053	0.0094186	-0.00620434	0
855.053	0.00945679	-0.00615533	0
865.053	0.00947588	-0.00611586	0
875.053	0.00938042	-0.00607704	0
885.053	0.00936133	-0.00602739	0
895.053	0.00949497	-0.00598792	0
905.053	0.00955224	-0.00595419	0
915.053	0.00939951	-0.00591727	0
925.053	0.00939951	-0.00587145	0
935.053	0.0094186	-0.00582944	0
945.053	0.00938042	-0.00579316	0
955.053	0.00936133	-0.0057486	0
965.053	0.00938042	-0.0057225	0
975.053	0.00949497	-0.00567158	0
985.053	0.0094377	-0.00565631	0
995.053	0.00949497	-0.00560921	0
1005.05	0.00949497	-0.00558056	0
1015.05	0.00938042	-0.0055481	0
1025.05	0.0094377	-0.00551309	0
1035.05	0.00947588	-0.00546854	0
1045.05	0.00945679	-0.00544117	0
1055.05	0.00949497	-0.00541062	0
1065.05	0.00936133	-0.00538707	0
1075.05	0.00939951	-0.00535524	0
1085.05	0.0094377	-0.0053196	0
1095.05	0.00947588	-0.00529223	0
1105.05	0.00936133	-0.00525277	0
1115.05	0.0094186	-0.00522476	0
1125.05	0.00938042	-0.0051993	0
1135.05	0.00939951	-0.00516556	0
1145.05	0.00932315	-0.00513247	0
1155.05	0.00939951	-0.00510828	0
1165.05	0.0094186	-0.00508282	0
1175.05	0.0094377	-0.00510064	0
1185.05	0.00949497	-0.00504399	0
1195.05	0.0094377	-0.00502044	0
1205.05	0.0094186	-0.00498798	0
1215.05	0.00939951	-0.00494024	0
1225.05	0.00951406	-0.00490969	0
1235.05	0.00957133	-0.00488359	0
1245.05	0.00930406	-0.00486323	0
1255.05	0.0094186	-0.00484222	0
1265.05	0.00938042	-0.00481294	0
1275.05	0.00939951	-0.00479194	0
1285.05	0.00938042	-0.00475629	0
1295.05	0.0094186	-0.00474038	0
1305.05	0.00947588	-0.0047232	0
1315.05	0.00938042	-0.00469328	0
1325.05	0.0094186	-0.00466718	0
1335.05	0.0094377	-0.00464618	0
1345.05	0.00939951	-0.00462708	0
1355.05	0.00949497	-0.00460226	0
1365.05	0.00953315	-0.00457553	0
1375.05	0.00949497	-0.00454688	0
1385.05	0.00936133	-0.00451888	0
1395.05	0.0094377	-0.00450424	0
1405.05	0.00951406	-0.00449548	0
1415.05	0.00947588	-0.00447416	0
1425.05	0.0094186	-0.00444665	0
1435.05	0.00936133	-0.00442106	0
1445.05	0.00945679	-0.00439795	0
1455.05	0.00939951	-0.00437631	0
1465.05	0.00945679	-0.00436249	0
1475.05	0.0094377	-0.00433296	0
1485.05	0.00945679	-0.0043215	0
1495.05	0.00939951	-0.00428903	0
1505.05	0.00947588	-0.00427439	0
1515.05	0.00949497	-0.00425401	0
1525.05	0.00936133	-0.00423383	0
1535.05	0.0094186	-0.00421442	0
1545.05	0.00947588	-0.00420181	0
1555.05	0.00953315	-0.00418125	0
1565.05	0.00949497	-0.00416501	0
1575.05	0.0094377	-0.00414541	0
1585.05	0.00939951	-0.00411638	0
1595.05	0.00947588	-0.00410282	0
1605.05	0.0094186	-0.00408645	0
1615.05	0.00951406	-0.00406634	0
1625.05	0.0094186	-0.00405004	0
1635.05	0.0094186	-0.00402738	0
1645.05	0.0094377	-0.00400611	0
1655.05	0.00951406	-0.00396047	0
1665.05	0.00939951	-0.00396728	0
1675.05	0.0094377	-0.0039513	0
1685.05	0.0094186	-0.00393328	0
1690.61	0.00936133	-0.00391756	0
1690.61	0.0094377	-0.00392819	0

File: 2024-04-25_E-measurements_sample-Ionic-electrolyte-01_C-cell_Cu-Li-Cellgard2400-separator_25muL-ionic-electrolyte_outside-glovebox_sigma-0.02_added-OCV-0.1s_04_CP_C01.txt
time/s	Ewe/V	I/mA	error
1690.76	-0.426289	-0.193764	0
1690.78	-0.989672	-0.195961	0
1690.8	-1.11573	-0.195961	0
1690.82	-1.25103	-0.195965	0
1690.86	-1.37581	-0.195969	0
1690.91	-1.49585	-0.195961	0
1690.98	-1.60557	-0.195963	0
1691.06	-1.71204	-0.195966	0
1691.17	-1.81651	-0.195968	0
1691.29	-1.91935	-0.195968	0
1691.42	-2.02229	-0.195965	0
1691.56	-2.12358	-0.195963	0
1691.7	-2.22472	-0.195959	0
1691.85	-2.32692	-0.195965	0
1692.01	-2.42928	-0.19596	0
1692.16	-2.53108	-0.195965	0
1692.32	-2.63312	-0.195962	0
1692.48	-2.73541	-0.195965	0
1692.63	-2.83714	-0.195963	0
1692.79	-2.93793	-0.195961	0
1692.94	-3.03903	-0.195958	0
1693.1	-3.14144	-0.195958	0
1693.26	-3.24218	-0.195968	0
1693.42	-3.34254	-0.195965	0
1693.58	-3.44323	-0.195962	0
1693.75	-3.54477	-0.195965	0
1693.92	-3.64515	-0.195967	0
1694.11	-3.74664	-0.195965	0
1694.3	-3.84721	-0.195961	0
1694.49	-3.94587	-0.195969	0
1694.69	-4.04635	-0.195964	0
1694.9	-4.14618	-0.195965	0
1695.11	-4.24649	-0.195959	0
1695.33	-4.34758	-0.195963	0
1695.55	-4.44681	-0.19596	0
1695.77	-4.54746	-0.195965	0
1695.99	-4.64847	-0.195961	0
1696.22	-4.74774	-0.195947	0
1696.46	-4.84837	-0.1958	0
1696.69	-4.94745	-0.195748	0
1696.94	-5.04738	-0.195757	0
1697.19	-5.14728	-0.195766	0
1697.45	-5.2465	-0.195775	0
1697.72	-5.34613	-0.195775	0
1698	-5.44558	-0.195786	0
1698.3	-5.54525	-0.195786	0
1698.63	-5.64447	-0.195805	0
1698.97	-5.74317	-0.195815	0
1699.35	-5.84103	-0.195834	0
1699.77	-5.93916	-0.195849	0
1700.42	-6.03669	-0.195892	0
1701.97	-6.13272	-0.195924	0
1703.33	-6.22977	-0.195932	0
1705.03	-6.32698	-0.195937	0
1707.28	-6.42333	-0.195943	0
1710.2	-6.52006	-0.195947	0
1713.73	-6.61705	-0.195954	0
1718.32	-6.71338	-0.195956	0
1724.22	-6.81052	-0.195952	0
1732.11	-6.90469	-0.195956	0
1741.1	-7.00062	-0.19596	0
1748.66	-7.04938	-0.195954	0
1758.69	-7.14331	-0.195954	0
1769.54	-7.23138	-0.195962	0
1783.08	-7.3271	-0.195965	0
1796.27	-7.42305	-0.195965	0
1812.76	-7.50449	-0.195962	0
1837.33	-7.60046	-0.195966	0
1864.58	-7.61106	-0.195963	0
1888.28	-7.66936	-0.195965	0
1905.65	-7.76577	-0.195959	0
1914.83	-7.8148	-0.195968	0
1925.97	-7.87058	-0.195963	0
1928.39	-7.79086	-0.195961	0
1930.85	-7.84718	-0.195962	0
1937.34	-7.92715	-0.195963	0
1943.02	-7.96243	-0.195958	0
1946.16	-7.93746	-0.195969	0
1949.7	-8.00649	-0.195961	0
1958.2	-8.08148	-0.195956	0
1961.79	-8.08442	-0.195959	0
1966.06	-8.18058	-0.195957	0
1969.73	-8.24056	-0.195955	0
1974.79	-8.21815	-0.195965	0
1977.89	-8.25574	-0.195963	0
1979.74	-8.26844	-0.195963	0
1982.74	-8.35748	-0.195945	0
1990.76	-8.44182	-0.195957	0
2000.62	-8.49728	-0.195963	0
2004.44	-8.55211	-0.195954	0
2008.31	-8.62723	-0.195956	0
2012.81	-8.70843	-0.195952	0
2019.54	-8.79451	-0.195957	0
2026.65	-8.8599	-0.195958	0
2028.65	-8.8611	-0.19596	0
2031.81	-8.924	-0.195956	0
2034.86	-8.97923	-0.195956	0
2038.18	-9.04611	-0.195957	0
2041.06	-9.11856	-0.195953	0
2043.94	-9.10901	-0.195959	0
2049.81	-9.16297	-0.195958	0
2054.39	-9.2021	-0.195961	0
2057.1	-9.24584	-0.19596	0
2058.14	-9.20315	-0.19597	0
2060.51	-9.28358	-0.195954	0
2062.27	-9.2824	-0.195961	0
2064.78	-9.37192	-0.195951	0
2067.46	-9.41184	-0.19597	0
2071.93	-9.44486	-0.195959	0
2074.09	-9.46626	-0.19596	0
2078.39	-9.46829	-0.195963	0
2080.75	-9.55891	-0.195944	0
2081.86	-9.52799	-0.195961	0
2083.85	-9.50949	-0.195968	0
2086.65	-9.57199	-0.19596	0
2087.61	-9.47237	-0.195972	0
2087.74	-9.34217	-0.195967	0
2091.83	-9.30382	-0.195967	0
2095.25	-9.35787	-0.19597	0
2095.28	-9.15094	-0.195967	0
2096.45	-9.14277	-0.195968	0
2100.03	-9.08939	-0.195968	0
2104.23	-9.08423	-0.195967	0
2108.38	-9.10942	-0.195964	0
2111.81	-9.14716	-0.19596	0
2114.88	-9.13799	-0.195963	0
2116.37	-9.16111	-0.19597	0
2118.91	-9.19214	-0.195963	0
2121.62	-9.26795	-0.19596	0
2124.89	-9.28855	-0.195968	0
2129.6	-9.34643	-0.19596	0
2132.85	-9.43322	-0.195963	0
2136.05	-9.44626	-0.195964	0
2139.79	-9.49523	-0.195969	0
2142.5	-9.52293	-0.195965	0
2144.19	-9.43929	-0.19596	0
2149.59	-9.52222	-0.195963	0
2153.83	-9.58392	-0.195968	0
2157.95	-9.58547	-0.195965	0
2159.46	-9.65282	-0.195955	0
2162.21	-9.71527	-0.195954	0
2164.26	-9.71097	-0.195965	0
2167.83	-9.71389	-0.195971	0
2170.68	-9.72491	-0.195959	0
2171.78	-9.83207	-0.195881	0
2175.11	-9.78035	-0.195961	0
2176.59	-9.68295	-0.195963	0
2177.17	-9.5844	-0.195966	0
2178.04	-9.48627	-0.195972	0
2184.43	-9.41228	-0.195963	0
2190.52	-9.39261	-0.195967	0
2193.77	-9.46453	-0.195967	0
2201.57	-9.45561	-0.195968	0
2206.45	-9.47459	-0.195963	0
2208.82	-9.45966	-0.195965	0
2209.32	-9.36136	-0.195968	0
2210.91	-9.26354	-0.195959	0
2228.15	-9.32056	-0.195967	0
2233.36	-9.40107	-0.19596	0
2239.56	-9.39528	-0.195964	0
2243.5	-9.49177	-0.195965	0
2248.33	-9.47644	-0.19597	0
2253.18	-9.44689	-0.19597	0
2259.82	-9.41594	-0.195968	0
2267.47	-9.45809	-0.195966	0
2273.2	-9.51275	-0.195963	0
2277.38	-9.53331	-0.195962	0
2283.62	-9.60254	-0.195963	0
2288.6	-9.67044	-0.195967	0
2298.05	-9.73174	-0.195964	0
2306.19	-9.76878	-0.19597	0
2312.86	-9.82773	-0.19596	0
2322.67	-9.90229	-0.195963	0
2335.8	-9.84965	-0.195965	0
2343.24	-9.75716	-0.195967	0
2356.17	-9.75855	-0.195965	0
2367.89	-9.66857	-0.19597	0
2391.98	-9.59139	-0.195967	0
2430.77	-9.56817	-0.195967	0
2449.91	-9.50147	-0.195969	0
2451.82	-9.5012	-0.195977	0
2457.66	-9.4043	-0.195969	0
2469.4	-9.30483	-0.195968	0
2495.08	-9.20919	-0.195971	0
2508.37	-9.16902	-0.195968	0
2515.29	-9.12478	-0.195965	0
2527.47	-9.0447	-0.19597	0
2532.13	-9.05707	-0.195963	0
2544.42	-8.98977	-0.195968	0
2555.12	-9.08448	-0.19597	0
2567.22	-9.01524	-0.195962	0
2587.1	-9.10237	-0.195964	0
2603.97	-9.16997	-0.195965	0
2619.63	-9.26232	-0.195965	0
2636.23	-9.3354	-0.195967	0
2649.48	-9.42883	-0.195964	0
2651.82	-9.51573	-0.195957	0
2656.76	-9.42104	-0.195966	0
2676.38	-9.48215	-0.195966	0
2696.02	-9.55328	-0.195958	0
2716.37	-9.57907	-0.195965	0
2737.39	-9.5184	-0.195966	0
2751.01	-9.48488	-0.195965	0
2759.94	-9.56481	-0.195964	0
2764.95	-9.49937	-0.195968	0
2773.59	-9.40494	-0.195959	0
2778.12	-9.31676	-0.195965	0
2794.19	-9.31398	-0.195966	0
2805.05	-9.26312	-0.195965	0
2811.4	-9.19506	-0.195965	0
2822.05	-9.13223	-0.195965	0
2830.18	-9.13148	-0.19596	0
2840.84	-9.06573	-0.195968	0
2848.57	-9.12165	-0.195959	0
2855.84	-9.07671	-0.19597	0
2864.47	-8.98049	-0.195965	0
2875.76	-8.91929	-0.195965	0
2885.27	-8.88689	-0.195967	0
2907.85	-8.91242	-0.195965	0
2915.03	-8.9905	-0.195965	0
2918.5	-9.00737	-0.195965	0
2924.77	-9.02868	-0.195962	0
2932.17	-8.93443	-0.195972	0
2941.76	-8.84609	-0.195963	0
2952.89	-8.83313	-0.195968	0
2958.05	-8.88366	-0.195965	0
2963.78	-8.86173	-0.195968	0
2967.52	-8.88511	-0.19597	0
2971.01	-8.96513	-0.195963	0
2975.26	-9.05136	-0.195962	0
2981.71	-9.10481	-0.195967	0
2982.47	-9.01696	-0.195962	0
2987.6	-8.92689	-0.195965	0
2990.84	-8.82985	-0.195961	0
2993.21	-8.73487	-0.195968	0
3000.59	-8.6981	-0.195971	0
3011.33	-8.72836	-0.195968	0
3017.72	-8.70421	-0.195968	0
3027.96	-8.7968	-0.195966	0
3030.41	-8.72635	-0.195963	0
3038.5	-8.77548	-0.195968	0
3045.42	-8.78659	-0.195967	0
3050.65	-8.7486	-0.195971	0
3057.72	-8.73473	-0.195965	0
3063.13	-8.74315	-0.19596	0
3070.57	-8.74136	-0.195965	0
3075.86	-8.74149	-0.195958	0
3081.1	-8.70957	-0.195965	0
3090.12	-8.69613	-0.195962	0
3097.45	-8.74325	-0.195967	0
3102.36	-8.74251	-0.195966	0
3106.78	-8.75791	-0.195969	0
3113.98	-8.82725	-0.195967	0
3119.05	-8.83807	-0.19596	0
3126.52	-8.85612	-0.195969	0
3131.45	-8.90654	-0.19596	0
3137.47	-8.90759	-0.195969	0
3144.82	-8.89176	-0.195965	0
3149.88	-8.86005	-0.195969	0
3160.42	-8.85111	-0.195965	0
3168.94	-8.88326	-0.195967	0
3177.25	-8.87219	-0.195963	0
3179.66	-8.83193	-0.195965	0
3192.28	-8.81234	-0.19596	0
3200.25	-8.81532	-0.195964	0
3208.39	-8.82087	-0.195965	0
3217.98	-8.80969	-0.195965	0
3223.97	-8.77364	-0.195963	0
3233.56	-8.8203	-0.195962	0
3241.59	-8.81104	-0.19597	0
3245.5	-8.72087	-0.195965	0
3256.08	-8.69046	-0.195963	0
3265.1	-8.76037	-0.195967	0
3274.69	-8.77601	-0.195968	0
3281.39	-8.82832	-0.195965	0
3287.48	-8.78134	-0.195962	0
3303.22	-8.78437	-0.195961	0
3307.91	-8.82131	-0.195965	0
3315.12	-8.83668	-0.195959	0
3322.5	-8.81818	-0.195965	0
3325.56	-8.76822	-0.195959	0
3337.54	-8.8316	-0.195962	0
3343.25	-8.80157	-0.195962	0
3354.03	-8.7813	-0.195963	0
3360.18	-8.71377	-0.195964	0
3371.47	-8.70178	-0.195968	0
3378.6	-8.73628	-0.195968	0
3386.96	-8.69195	-0.195967	0
3404.61	-8.70952	-0.195967	0
3417.2	-8.80369	-0.195962	0
3429.98	-8.89697	-0.195961	0
3438.26	-8.83548	-0.195967	0
3442.65	-8.85501	-0.195967	0
3446.48	-8.777	-0.195965	0
3459.21	-8.73086	-0.195966	0
3460.02	-8.63262	-0.19596	0
3473.06	-8.60003	-0.195968	0
3485.05	-8.69619	-0.195966	0
3488.65	-8.79344	-0.195965	0
3490.76	-8.81557	-0.195965	0

File: 2024-04-25_E-measurements_sample-LiFSI-electrolyte-01_C-cell_Cu-Li-Cellgard2400-separator_25muL-LiFSI-in-DME_outside-glovebox_sigma-0.02_added-OCV-0.1s_04_CP_C02.txt
time/s	Ewe/V	I/mA	error
1332.43	0.00552147	-0.194577	0
1332.43	-0.000696439	-0.195967	0
1332.43	-0.00331154	-0.195963	0
1332.43	-0.00543034	-0.195971	0
1332.43	-0.00774002	-0.195962	0
1332.43	-0.00999244	-0.195973	0
1332.43	-0.0124357	-0.195963	0
1332.43	-0.0145736	-0.195969	0
1332.44	-0.0167497	-0.195966	0
1332.44	-0.0189449	-0.195969	0
1332.44	-0.0211209	-0.195966	0
1332.44	-0.0235833	-0.195963	0
1332.44	-0.0258357	-0.195963	0
1332.45	-0.0279927	-0.19597	0
1332.45	-0.0304551	-0.195964	0
1332.45	-0.0326121	-0.195965	0
1332.45	-0.0346736	-0.195961	0
1332.45	-0.036926	-0.195966	0
1332.46	-0.039083	-0.195967	0
1332.46	-0.0414882	-0.195966	0
1332.46	-0.0437024	-0.195965	0
1332.46	-0.0458594	-0.195963	0
1332.47	-0.0479591	-0.195968	0
1332.47	-0.0502306	-0.19597	0
1332.47	-0.0524258	-0.195963	0
1332.47	-0.0546782	-0.195963	0
1332.48	-0.0568542	-0.195965	0
1332.48	-0.0589349	-0.195966	0
1332.48	-0.0611873	-0.195959	0
1332.48	-0.0633443	-0.195967	0
1332.49	-0.0655776	-0.195963	0
1332.49	-0.0678109	-0.195962	0
1332.49	-0.0700443	-0.195972	0
1332.49	-0.0722394	-0.195958	0
1332.5	-0.0743964	-0.195964	0
1332.5	-0.0767633	-0.195968	0
1332.5	-0.0789394	-0.195966	0
1332.51	-0.0810391	-0.19597	0
1332.51	-0.0833488	-0.195966	0
1332.51	-0.0854485	-0.195964	0
1332.51	-0.0876628	-0.195962	0
1332.52	-0.0898579	-0.195964	0
1332.52	-0.0919958	-0.195968	0
1332.52	-0.0941146	-0.195967	0
1332.53	-0.0961571	-0.19597	0
1332.53	-0.0983522	-0.195963	0
1332.53	-0.100452	-0.195965	0
1332.54	-0.102762	-0.195962	0
1332.54	-0.104976	-0.19597	0
1332.54	-0.107171	-0.195966	0
1332.55	-0.109271	-0.195966	0
1332.55	-0.111351	-0.195971	0
1332.56	-0.113623	-0.195971	0
1332.56	-0.115723	-0.195963	0
1332.56	-0.117841	-0.195968	0
1332.57	-0.120075	-0.195968	0
1332.57	-0.122194	-0.195968	0
1332.58	-0.124446	-0.195969	0
1332.58	-0.126584	-0.195973	0
1332.59	-0.128741	-0.195961	0
1332.59	-0.130821	-0.19596	0
1332.59	-0.132921	-0.195966	0
1332.6	-0.135193	-0.195971	0
1332.6	-0.137292	-0.195957	0
1332.61	-0.139449	-0.195971	0
1332.62	-0.141683	-0.195962	0
1332.62	-0.143763	-0.195967	0
1332.63	-0.145863	-0.195969	0
1332.63	-0.148039	-0.195964	0
1332.64	-0.150101	-0.195966	0
1332.64	-0.152277	-0.195967	0
1332.65	-0.154357	-0.195966	0
1332.66	-0.156514	-0.195971	0
1332.66	-0.158786	-0.195968	0
1332.67	-0.161	-0.195964	0
1332.68	-0.1631	-0.195967	0
1332.69	-0.165295	-0.195964	0
1332.7	-0.167318	-0.195968	0
1332.7	-0.16938	-0.195964	0
1332.71	-0.17146	-0.195968	0
1332.72	-0.173503	-0.195969	0
1332.73	-0.175526	-0.195967	0
1332.74	-0.177645	-0.195961	0
1332.76	-0.179668	-0.19596	0
1332.77	-0.181768	-0.195964	0
1332.79	-0.183849	-0.195966	0
1332.81	-0.185987	-0.195966	0
1332.87	-0.185987	-0.195969	0
1332.89	-0.183868	-0.195966	0
1332.91	-0.181749	-0.195968	0
1332.92	-0.179649	-0.195966	0
1332.93	-0.177588	-0.195969	0
1332.95	-0.175526	-0.19597	0
1332.95	-0.173465	-0.195966	0
1332.97	-0.171403	-0.195962	0
1332.98	-0.16917	-0.195971	0
1332.99	-0.16707	-0.195959	0
1333	-0.16499	-0.195971	0
1333.01	-0.162833	-0.195967	0
1333.02	-0.160695	-0.195967	0
1333.03	-0.158671	-0.19597	0
1333.04	-0.156591	-0.195967	0
1333.05	-0.154357	-0.195968	0
1333.07	-0.152277	-0.195964	0
1333.08	-0.150082	-0.195964	0
1333.09	-0.147963	-0.195966	0
1333.11	-0.145806	-0.19597	0
1333.13	-0.143725	-0.195971	0
1333.15	-0.141625	-0.19597	0
1333.16	-0.139602	-0.195969	0
1333.19	-0.137521	-0.19597	0
1333.21	-0.135422	-0.195966	0
1333.24	-0.13336	-0.195966	0
1333.28	-0.131299	-0.195966	0
1333.32	-0.12918	-0.195968	0
1333.37	-0.127156	-0.195969	0
1333.44	-0.125057	-0.195966	0
1333.55	-0.1229	-0.195969	0
1333.7	-0.120857	-0.195968	0
1333.98	-0.118796	-0.195971	0
1334.84	-0.116715	-0.195964	0
1354.84	-0.117441	-0.195968	0
1374.84	-0.11786	-0.19597	0
1394.84	-0.117746	-0.19597	0
1414.84	-0.11683	-0.195969	0
1434.84	-0.115875	-0.195968	0
1454.84	-0.11473	-0.195969	0
1473.69	-0.113298	-0.195964	0
1493.69	-0.111829	-0.19597	0
1513.69	-0.110569	-0.195967	0
1533.15	-0.108984	-0.195969	0
1553.15	-0.107935	-0.195971	0
1573.15	-0.106732	-0.195968	0
1593.15	-0.105434	-0.19597	0
1613.15	-0.104136	-0.19597	0
1633.15	-0.103162	-0.195971	0
1653.15	-0.102017	-0.195975	0
1673.15	-0.101044	-0.195972	0
1693.15	-0.100127	-0.195971	0
1713.15	-0.0993066	-0.195971	0
1733.15	-0.0983904	-0.195965	0
1753.15	-0.0977605	-0.195969	0
1773.15	-0.0969206	-0.195971	0
1793.15	-0.0963098	-0.195968	0
1813.15	-0.0956226	-0.195972	0
1833.15	-0.0950499	-0.195963	0
1853.15	-0.0945155	-0.195975	0
1873.15	-0.0937329	-0.195966	0
1893.15	-0.0934274	-0.195966	0
1913.15	-0.0927593	-0.195969	0
1933.15	-0.0923967	-0.195969	0
1953.15	-0.0919195	-0.195973	0
1973.15	-0.0913468	-0.195974	0
1993.15	-0.0909078	-0.195969	0
2013.15	-0.0904688	-0.195967	0
2033.15	-0.0900679	-0.195971	0
2053.15	-0.0896289	-0.195963	0
2073.15	-0.089228	-0.195964	0
2093.15	-0.0887317	-0.195968	0
2113.15	-0.0884836	-0.195969	0
2133.15	-0.0881972	-0.195969	0
2153.15	-0.0878918	-0.195971	0
2173.15	-0.087491	-0.195968	0
2193.15	-0.0873001	-0.195969	0
2213.15	-0.0869374	-0.195967	0
2233.15	-0.0865175	-0.195968	0
2253.15	-0.086193	-0.195976	0
2273.15	-0.085983	-0.195967	0
2293.15	-0.0856776	-0.19597	0
2313.15	-0.0853722	-0.195972	0
2333.15	-0.0850859	-0.19598	0
2353.15	-0.0849713	-0.19597	0
2373.15	-0.0847232	-0.195974	0
2393.15	-0.0844368	-0.19597	0
2413.15	-0.0841887	-0.19597	0
2433.15	-0.0840169	-0.195965	0
2453.15	-0.083616	-0.195971	0
2473.15	-0.0832915	-0.195967	0
2493.15	-0.0832725	-0.19597	0
2513.15	-0.0830243	-0.195969	0
2533.15	-0.0828143	-0.195966	0
2553.15	-0.0826044	-0.195972	0
2573.15	-0.0824517	-0.195969	0
2593.15	-0.0822799	-0.195974	0
2613.15	-0.0819745	-0.195972	0
2633.15	-0.0818217	-0.195968	0
2653.15	-0.0817645	-0.195975	0
2673.15	-0.0814591	-0.195974	0
2693.15	-0.0813255	-0.195976	0
2713.15	-0.0810582	-0.195967	0
2733.15	-0.0808864	-0.195967	0
2753.15	-0.0806955	-0.195973	0
2773.15	-0.0806765	-0.195971	0
2793.15	-0.0805237	-0.195975	0
2813.15	-0.0801802	-0.195971	0
2833.15	-0.0801229	-0.195968	0
2853.15	-0.0798747	-0.195967	0
2873.15	-0.0798366	-0.195969	0
2893.15	-0.0797029	-0.195969	0
2913.15	-0.0795693	-0.195966	0
2933.15	-0.0793212	-0.195971	0
2953.15	-0.0793021	-0.19597	0
2973.15	-0.0791876	-0.195971	0
2993.15	-0.0788249	-0.195972	0
3013.15	-0.078844	-0.19597	0
3033.15	-0.0787676	-0.195966	0
3053.15	-0.0784622	-0.195976	0
3073.15	-0.0784431	-0.195973	0
3093.15	-0.0783477	-0.195976	0
3113.15	-0.0781377	-0.195969	0
3132.43	-0.0780804	-0.195971	0