Folder: MASTER-THESIS/EXPERIMENTAL/Data/Battery-cycling/SEIDEP

Note: EXPERIMENTAL/Data/Battery-cycling/SEIDEP/2024-04-18_SEIDEP-1_T-cell_Li-Cu_1-mm-PP-spacer_75muL-4MLiFSI-DME_inside-glovebox_01_OCV_C10.txt
time/s	<Ewe>/V	error	
9.999999747378752E+000	2.9833093E+000	0
1.999999949475750E+001	2.9840145E+000	0
2.999999924213625E+001	2.9847224E+000	0
3.999999898951501E+001	2.9854066E+000	0
4.999999873689376E+001	2.9860227E+000	0
5.999979848427756E+001	2.9866462E+000	0

Note: EXPERIMENTAL/Data/Battery-cycling/SEIDEP/2024-04-19_SEIDEP-4_T-cell_Li-Cu_1-mm-PP-spacer_75muL-4MLiFSI-DME_inside-glovebox_01_OCV_C10.txt
time/s	<Ewe>/V	error	
9.999999747378752E+000	3.0093040E+000	0
1.999999949475750E+001	3.0103650E+000	0
2.999999924213625E+001	3.0115302E+000	0
3.999999898951501E+001	3.0121827E+000	0
4.999999873689376E+001	3.0131416E+000	0
5.999979848427756E+001	3.0141821E+000	0

File: 2024-04-18_SEIDEP-1_T-cell_Li-Cu_1-mm-PP-spacer_75muL-4MLiFSI-DME_inside-glovebox_03_CP_C10.txt
time/s	Ewe/V	I/mA	error
82.1586	0.0087414	-0.19599	0
82.4284	0.00767231	-0.195992	0
82.6312	0.00666048	-0.19599	0
82.7876	0.00564866	-0.195985	0
82.9518	0.00461775	-0.19599	0
83.0922	0.00360592	-0.195984	0
83.2284	0.00257501	-0.195991	0
83.3678	0.00156318	-0.195991	0
83.492	0.000551359	-0.195984	0
83.615	-0.000460464	-0.195991	0
83.738	-0.00154865	-0.195989	0
83.8718	-0.00259866	-0.195988	0
83.9862	-0.00364866	-0.195992	0
84.1052	-0.00466049	-0.195996	0
84.2316	-0.00571049	-0.19599	0
84.3556	-0.00674141	-0.195991	0
84.476	-0.0078105	-0.195987	0
84.5966	-0.00882233	-0.195991	0
84.7128	-0.00983415	-0.195989	0
84.8326	-0.0108651	-0.19599	0
84.9522	-0.0118769	-0.19599	0
85.0688	-0.0129078	-0.195997	0
85.1974	-0.0140151	-0.195987	0
85.3158	-0.015046	-0.195986	0
85.4362	-0.0160578	-0.195988	0
85.5542	-0.0171269	-0.195993	0
85.678	-0.0181387	-0.19599	0
85.7864	-0.0191506	-0.195988	0
85.91	-0.0202006	-0.195994	0
86.0252	-0.0212124	-0.195991	0
86.1464	-0.0222242	-0.19599	0
86.2636	-0.0232551	-0.19599	0
86.3896	-0.024286	-0.19599	0
86.5026	-0.0253361	-0.195987	0
86.6228	-0.0263479	-0.195995	0
86.7524	-0.0273597	-0.195989	0
86.876	-0.0283906	-0.195989	0
86.9928	-0.0294597	-0.195988	0
87.1184	-0.0304715	-0.195993	0
87.2478	-0.0315025	-0.195991	0
87.361	-0.0325143	-0.195995	0
87.4874	-0.0335643	-0.195987	0
87.6086	-0.0346525	-0.195997	0
87.7406	-0.0356643	-0.19599	0
87.8624	-0.0366952	-0.19599	0
87.9862	-0.037707	-0.195989	0
88.1142	-0.0387189	-0.195993	0
88.227	-0.039807	-0.195989	0
88.3582	-0.040857	-0.195987	0
88.484	-0.0418689	-0.195986	0
88.6048	-0.0430143	-0.195991	0
88.7518	-0.0440643	-0.195984	0
88.8862	-0.0451143	-0.19599	0
89.016	-0.0461262	-0.195994	0
89.1404	-0.0471762	-0.195991	0
89.2718	-0.0482262	-0.195984	0
89.4072	-0.0492953	-0.19599	0
89.5368	-0.0503262	-0.195991	0
89.6694	-0.051338	-0.195997	0
89.7946	-0.052388	-0.195995	0
89.932	-0.0534189	-0.195989	0
90.0572	-0.0544308	-0.195991	0
90.1848	-0.0554426	-0.195991	0
90.3168	-0.0564735	-0.195991	0
90.4566	-0.0575617	-0.195986	0
90.5966	-0.0585926	-0.195993	0
90.7294	-0.0596235	-0.195986	0
90.8632	-0.0606353	-0.195989	0
91.01	-0.0616853	-0.195991	0
91.1434	-0.0627163	-0.195989	0
91.2804	-0.0637472	-0.19599	0
91.4298	-0.0648735	-0.195991	0
91.5836	-0.0658854	-0.19599	0
91.7196	-0.0669163	-0.195988	0
91.8604	-0.0679472	-0.195995	0
92.0086	-0.0690736	-0.195988	0
92.157	-0.0700854	-0.195992	0
92.3046	-0.0711163	-0.195997	0
92.4626	-0.0721281	-0.195993	0
92.6048	-0.07314	-0.195991	0
92.7634	-0.0741518	-0.195996	0
92.9166	-0.0752018	-0.19599	0
93.0882	-0.0762136	-0.195987	0
93.2302	-0.0772254	-0.195989	0
93.4068	-0.0782945	-0.195986	0
93.584	-0.0793063	-0.195988	0
93.7566	-0.0803182	-0.195997	0
93.9476	-0.0813682	-0.195991	0
94.1346	-0.0824373	-0.195989	0
94.3614	-0.0834682	-0.195993	0
94.6104	-0.0845373	-0.19599	0
94.9048	-0.0855491	-0.195991	0
95.3188	-0.0865609	-0.195991	0
96.705	-0.08553	-0.195989	0
97.1862	-0.08448	-0.19599	0
97.6922	-0.0834491	-0.195986	0
98.1578	-0.0824373	-0.195991	0
98.7332	-0.0813873	-0.195992	0
99.4106	-0.0803754	-0.195991	0
100.133	-0.0793636	-0.19599	0
101.146	-0.0783518	-0.195991	0
102.342	-0.07734	-0.195982	0
103.99	-0.0763282	-0.19599	0
105.99	-0.0756218	-0.195993	0
107.99	-0.0750491	-0.195995	0
109.99	-0.0744	-0.195991	0
111.99	-0.0740181	-0.195993	0
113.99	-0.0737509	-0.19599	0
115.99	-0.0735409	-0.195991	0
117.99	-0.0732545	-0.195991	0
119.99	-0.0730254	-0.195983	0
121.99	-0.0729109	-0.19599	0
123.99	-0.0727581	-0.195998	0
125.99	-0.0726245	-0.19599	0
127.99	-0.0724909	-0.195993	0
129.99	-0.0724336	-0.195988	0
131.99	-0.0722618	-0.195987	0
133.99	-0.0719754	-0.195991	0
135.99	-0.0718418	-0.195993	0
137.99	-0.0718799	-0.195995	0
139.99	-0.0716699	-0.195994	0
141.99	-0.0715936	-0.195992	0
143.99	-0.071479	-0.195983	0
145.99	-0.0713454	-0.195993	0
147.99	-0.0713645	-0.195995	0
149.99	-0.0710972	-0.195993	0
151.99	-0.0709636	-0.195993	0
153.99	-0.0710972	-0.195998	0
155.99	-0.0709254	-0.195991	0
157.99	-0.0708299	-0.19599	0
159.99	-0.0706008	-0.195995	0
161.99	-0.0705436	-0.195994	0
163.99	-0.0704481	-0.195986	0
165.99	-0.0705054	-0.19599	0
167.99	-0.0702954	-0.195988	0
169.99	-0.0701427	-0.195988	0
171.99	-0.070219	-0.195995	0
173.99	-0.0700663	-0.195993	0
175.99	-0.0699899	-0.195986	0
177.99	-0.0698181	-0.195992	0
179.99	-0.0696272	-0.19599	0
181.99	-0.0695699	-0.195996	0
183.99	-0.0694745	-0.195992	0
185.99	-0.0694172	-0.195989	0
187.99	-0.0693981	-0.195989	0
189.99	-0.0690927	-0.195991	0
191.99	-0.0693408	-0.195995	0
193.99	-0.0691499	-0.195991	0
195.99	-0.0690927	-0.195991	0
197.99	-0.0689208	-0.195984	0
199.99	-0.068959	-0.195992	0
201.99	-0.0688063	-0.195996	0
203.99	-0.0688254	-0.195984	0
205.99	-0.068749	-0.19599	0
207.99	-0.0687681	-0.19599	0
209.99	-0.0686727	-0.195987	0
211.99	-0.068539	-0.195991	0
213.99	-0.0686345	-0.195995	0
215.99	-0.0684817	-0.195995	0
217.99	-0.0683481	-0.195987	0
219.99	-0.0682908	-0.195986	0
221.99	-0.0684627	-0.195998	0
223.99	-0.068329	-0.195992	0
225.99	-0.0681763	-0.195985	0
227.99	-0.0681954	-0.19599	0
229.99	-0.0682717	-0.19599	0
231.99	-0.0681572	-0.195988	0
233.99	-0.0679663	-0.195984	0
235.99	-0.0680999	-0.195987	0
237.99	-0.0680427	-0.195988	0
239.99	-0.0679663	-0.195995	0
241.99	-0.0680045	-0.19599	0
243.99	-0.0678899	-0.195995	0
245.99	-0.0681572	-0.195992	0
247.99	-0.0680236	-0.195985	0
249.99	-0.067909	-0.195989	0
251.99	-0.0679854	-0.195995	0
253.99	-0.0679854	-0.195988	0
255.99	-0.0680236	-0.195993	0
257.99	-0.0681763	-0.195992	0
259.99	-0.0679472	-0.195993	0
261.99	-0.0679281	-0.195989	0
263.99	-0.0679854	-0.19599	0
265.99	-0.067909	-0.195991	0
267.99	-0.0680045	-0.19599	0
269.99	-0.068119	-0.195989	0
271.99	-0.0680427	-0.195988	0
273.99	-0.0680808	-0.195987	0
275.99	-0.0679281	-0.19599	0
277.99	-0.0680617	-0.195981	0
279.99	-0.0679663	-0.195995	0
281.99	-0.0680236	-0.195988	0
283.99	-0.0679854	-0.195995	0
285.99	-0.0680427	-0.195984	0
287.99	-0.0680999	-0.19599	0
289.99	-0.0680427	-0.19599	0
291.99	-0.0681954	-0.195989	0
293.99	-0.0681381	-0.195989	0
295.99	-0.0681381	-0.195985	0
297.99	-0.0682336	-0.195988	0
299.99	-0.0681381	-0.195991	0
301.99	-0.0683099	-0.195993	0
303.99	-0.0680808	-0.195987	0
305.99	-0.068119	-0.195989	0
307.99	-0.0680617	-0.195991	0
309.99	-0.0681572	-0.195991	0
311.99	-0.0682336	-0.195991	0
313.99	-0.0682908	-0.195986	0
315.99	-0.0682145	-0.195996	0
317.99	-0.0682145	-0.195993	0
319.99	-0.0681954	-0.195995	0
321.99	-0.0682527	-0.195991	0
323.99	-0.0681572	-0.19599	0
325.99	-0.0681954	-0.195991	0
327.99	-0.0683863	-0.195986	0
329.99	-0.0684245	-0.19599	0
331.99	-0.0682717	-0.195986	0
333.99	-0.0683672	-0.195986	0
335.99	-0.0683863	-0.195991	0
337.99	-0.0683099	-0.195993	0
339.99	-0.068329	-0.195994	0
341.99	-0.0684436	-0.195987	0
343.99	-0.0685199	-0.195992	0
345.99	-0.0683481	-0.19599	0
347.99	-0.0684817	-0.195991	0
349.99	-0.0685199	-0.195991	0
351.99	-0.0685772	-0.195996	0
353.99	-0.0683672	-0.195992	0
355.99	-0.0685199	-0.195992	0
357.99	-0.0685963	-0.195989	0
359.99	-0.0684245	-0.195991	0
361.99	-0.0685963	-0.195992	0
363.99	-0.0684817	-0.195995	0
365.99	-0.0685772	-0.195994	0
367.99	-0.0685581	-0.195996	0
369.99	-0.0687108	-0.195993	0
371.99	-0.0686917	-0.19599	0
373.99	-0.0686917	-0.195991	0
375.99	-0.0686727	-0.195991	0
377.99	-0.0686727	-0.19599	0
379.99	-0.0686727	-0.195993	0
381.99	-0.0686917	-0.195993	0
383.99	-0.0688636	-0.19599	0
385.99	-0.0687108	-0.195985	0
387.99	-0.0686917	-0.195993	0
389.99	-0.068749	-0.19599	0
391.99	-0.0687299	-0.195988	0
393.99	-0.0687299	-0.195994	0
395.99	-0.0689208	-0.19599	0
397.99	-0.0687681	-0.19599	0
399.99	-0.0687108	-0.195995	0
401.99	-0.0689017	-0.195993	0
403.99	-0.0688827	-0.195995	0
405.99	-0.068959	-0.195993	0
407.99	-0.0689972	-0.19599	0
409.99	-0.0688636	-0.195997	0
411.99	-0.0690354	-0.195989	0
413.99	-0.0689208	-0.19599	0
415.99	-0.0688827	-0.195993	0
417.99	-0.0689972	-0.195989	0
419.99	-0.0689781	-0.195986	0
421.99	-0.068959	-0.195989	0
423.99	-0.0690927	-0.195989	0
425.99	-0.0689399	-0.195983	0
427.99	-0.0689972	-0.195992	0
429.99	-0.0690354	-0.195993	0
431.99	-0.0690927	-0.195987	0
433.99	-0.0690736	-0.195991	0
435.99	-0.068959	-0.195993	0
437.99	-0.0690354	-0.195992	0
439.99	-0.0690163	-0.195995	0
441.99	-0.0690736	-0.195988	0
442.157	-0.0690927	-0.195986	0

File: 2024-04-22_SEIDEP-5_T-cell_Li-Cu_1-mm-PP-spacer_75muL-4MLiFSI-DME_inside-glovebox_02_MB_C05.txt
time/s	Ewe/V	I/mA	error
60.053	2.78922	-0.0250364	0
60.1742	0.00854607	-9.88612	0
60.1762	0.00858428	-9.77915	0
60.178	0.00862249	-9.67472	0
60.1802	0.00867981	-9.55755	0
60.1824	0.00846965	-9.44102	0
60.1848	0.00854607	-9.32067	0
60.187	0.00854607	-9.20605	0
60.1894	0.00860339	-9.09271	0
60.1914	0.00854607	-8.98891	0
60.1936	0.00867981	-8.88003	0
60.196	0.00869891	-8.76987	0
60.1984	0.00846965	-8.65397	0
60.2008	0.00867981	-8.5419	0
60.2034	0.00860339	-8.42155	0
60.206	0.00858428	-8.31203	0
60.2084	0.00852697	-8.20314	0
60.2112	0.00860339	-8.0898	0
60.2138	0.00858428	-7.97518	0
60.2166	0.00846965	-7.86311	0
60.2192	0.00862249	-7.75422	0
60.222	0.00856518	-7.64915	0
60.2248	0.00856518	-7.53772	0
60.2278	0.0086607	-7.42182	0
60.2308	0.00856518	-7.31103	0
60.234	0.00860339	-7.18877	0
60.237	0.0086416	-7.08306	0
60.2398	0.00856518	-6.97609	0
60.2428	0.00850786	-6.87038	0
60.246	0.00852697	-6.76786	0
60.2494	0.0086607	-6.65197	0
60.2524	0.00852697	-6.54818	0
60.2562	0.0086607	-6.43228	0
60.2598	0.00862249	-6.31576	0
60.2636	0.00850786	-6.20687	0
60.2672	0.00858428	-6.09925	0
60.2706	0.00852697	-5.99673	0
60.2742	0.00850786	-5.89294	0
60.2786	0.00846965	-5.78278	0
60.2828	0.00856518	-5.67135	0
60.287	0.00854607	-5.56883	0
60.2916	0.00856518	-5.45548	0
60.2966	0.00860339	-5.33895	0
60.3014	0.00858428	-5.23516	0
60.3064	0.00854607	-5.13328	0
60.3116	0.00867981	-5.02375	0
60.3176	0.00854607	-4.91996	0
60.3234	0.00854607	-4.80598	0
60.33	0.00848876	-4.699	0
60.3362	0.0086416	-4.59648	0
60.3432	0.00854607	-4.49205	0
60.3504	0.00856518	-4.38889	0
60.3578	0.00856518	-4.2851	0
60.3664	0.00852697	-4.17494	0
60.4034	0.00858428	-3.82238	0
60.4144	0.00856518	-3.72135	0
60.4262	0.00867981	-3.62007	0
60.439	0.00858428	-3.51873	0
60.4528	0.00852697	-3.41732	0
60.4674	0.00856518	-3.31636	0
60.4834	0.00856518	-3.21533	0
60.5006	0.00850786	-3.11437	0
60.5194	0.00856518	-3.01315	0
60.5398	0.00848876	-2.9113	0
60.5622	0.00858428	-2.81002	0
60.5864	0.00860339	-2.70912	0
60.6128	0.00860339	-2.60797	0
60.6416	0.00856518	-2.50739	0
60.6734	0.00856518	-2.40662	0
60.7086	0.0086416	-2.30508	0
60.7478	0.00848876	-2.20463	0
60.7912	0.00867981	-2.10392	0
60.8394	0.00854607	-2.00385	0
60.8938	0.00854607	-1.90251	0
60.9552	0.00862249	-1.8018	0
61.0252	0.00862249	-1.70148	0
61.1058	0.00860339	-1.6009	0
61.1986	0.00862249	-1.50051	0
61.3078	0.00867981	-1.3998	0
61.4352	0.00862249	-1.2996	0
61.59	0.0086416	-1.19921	0
61.7782	0.0086607	-1.09889	0
62.0106	0.00850786	-0.998691	0
62.3072	0.00854607	-0.898557	0
62.6976	0.00856518	-0.798232	0
63.2302	0.00862249	-0.698035	0
63.994	0.0086416	-0.597901	0
65.0528	0.00856518	-0.507131	0
65.8552	0.00858428	-0.457382	0
68.74	0.00867981	-0.357308	0
75.2442	0.00858428	-0.257218	0
98.0922	0.0086416	-0.157165	0
158.092	0.00858428	-0.0991828	0
218.092	0.0086607	-0.079157	0
278.092	0.00856518	-0.0677147	0
338.092	0.0086416	-0.0599527	0
398.092	0.00856518	-0.0543047	0
458.092	0.00854607	-0.049752	0
518.092	0.0086416	-0.0458232	0
578.092	0.00860339	-0.0432735	0
638.092	0.00852697	-0.0407657	0
698.092	0.0086416	-0.0385679	0
758.092	0.00854607	-0.0367248	0
818.092	0.00860339	-0.0349905	0
878.092	0.00867981	-0.0335147	0
938.092	0.00860339	-0.0321981	0
998.092	0.00867981	-0.0309566	0
1058.09	0.0086416	-0.0299513	0
1118.09	0.00860339	-0.0289537	0
1178.09	0.00867981	-0.0279561	0
1238.09	0.0086607	-0.0272303	0
1298.09	0.00860339	-0.0263459	0
1358.09	0.0086607	-0.0256571	0
1418.09	0.00860339	-0.0249695	0
1478.09	0.00854607	-0.0243443	0
1538.09	0.00848876	-0.0238254	0
1598.09	0.0086607	-0.0232117	0
1658.09	0.00858428	-0.0227373	0
1718.09	0.00858428	-0.0222611	0
1778.09	0.00854607	-0.0218397	0
1838.09	0.0086607	-0.0213895	0
1898.09	0.0086416	-0.0209515	0
1958.09	0.00869891	-0.0205765	0
2018.09	0.00850786	-0.0202174	0
2078.09	0.00862249	-0.0199214	0
2138.09	0.00860339	-0.0195814	0
2198.09	0.00867981	-0.0190161	0
2258.09	0.00858428	-0.0187289	0
2318.09	0.00858428	-0.0184717	0
2378.09	0.00856518	-0.0182024	0
2438.09	0.00867981	-0.0179433	0
2498.09	0.00856518	-0.017793	0
2558.09	0.00854607	-0.0175371	0
2618.09	0.00862249	-0.0173206	0
2678.09	0.00860339	-0.0171405	0
2738.09	0.00871802	-0.0169565	0
2798.09	0.00854607	-0.0165936	0
2858.09	0.0086607	-0.0163803	0
2918.09	0.0086416	-0.0161912	0
2978.09	0.00858428	-0.0159595	0
3038.09	0.00860339	-0.0158964	0
3098.09	0.00871802	-0.0157194	0
3158.09	0.00860339	-0.0155711	0
3218.09	0.00856518	-0.0154094	0
3278.09	0.00867981	-0.0152483	0
3338.09	0.00858428	-0.0151025	0
3398.09	0.00871802	-0.0149446	0
3458.09	0.00854607	-0.014781	0
3518.09	0.00848876	-0.0146237	0
3578.09	0.00858428	-0.0144951	0
3638.09	0.00867981	-0.0143576	0
3698.09	0.0086607	-0.0142284	0
3758.09	0.0086416	-0.0138935	0
3818.09	0.00856518	-0.0137891	0
3878.09	0.00871802	-0.0136713	0
3938.09	0.0086607	-0.0135758	0
3998.09	0.00867981	-0.0134606	0
4058.09	0.00856518	-0.013332	0
4118.09	0.00862249	-0.0132371	0
4178.09	0.0086607	-0.0131085	0
4238.09	0.00856518	-0.0130792	0
4298.09	0.0086416	-0.0129404	0
4358.09	0.00862249	-0.0129449	0
4418.09	0.00869891	-0.0127876	0
4478.09	0.00869891	-0.0126787	0
4538.09	0.00852697	-0.0125985	0
4598.09	0.00852697	-0.0124884	0
4658.09	0.00860339	-0.0124247	0
4718.09	0.00862249	-0.0123579	0
4778.09	0.00860339	-0.0123069	0
4838.09	0.00852697	-0.0122477	0
4898.09	0.00848876	-0.012121	0
4958.09	0.00854607	-0.0120593	0
5018.09	0.00867981	-0.0119905	0
5078.09	0.00854607	-0.0119218	0
5138.09	0.00848876	-0.0118816	0
5198.09	0.00858428	-0.0118014	0
5258.09	0.0086607	-0.0117365	0
5318.09	0.0086607	-0.0115945	0
5378.09	0.00867981	-0.01159	0
5438.09	0.0086416	-0.0115493	0
5498.09	0.0086416	-0.0113481	0
5558.09	0.0086416	-0.0113742	0
5618.09	0.00858428	-0.0112972	0
5678.09	0.0086416	-0.0112335	0
5738.09	0.00862249	-0.0111508	0
5798.09	0.00862249	-0.0110705	0
5858.09	0.00867981	-0.0110521	0
5918.09	0.00860339	-0.0110005	0
5978.09	0.00852697	-0.0108757	0
6038.09	0.00858428	-0.0108515	0
6098.09	0.00858428	-0.0108343	0
6158.09	0.00858428	-0.0107675	0
6218.09	0.00860339	-0.0107471	0
6278.09	0.00867981	-0.0106892	0
6338.09	0.00871802	-0.0106325	0
6398.09	0.00860339	-0.0105835	0
6458.09	0.00858428	-0.0105071	0
6518.09	0.00856518	-0.0104154	0
6578.09	0.00869891	-0.0104288	0
6638.09	0.00846965	-0.010374	0
6698.09	0.00858428	-0.0103167	0
6758.09	0.00860339	-0.0102518	0
6818.09	0.00858428	-0.0101913	0
6878.09	0.00860339	-0.0101677	0
6938.09	0.00871802	-0.0101327	0
6998.09	0.00860339	-0.0101187	0
7058.09	0.00858428	-0.0100646	0
7118.09	0.00856518	-0.010036	0
7178.09	0.00860339	-0.0099933	0
7238.09	0.00871802	-0.00992582	0
7271.05	0.00860339	-0.00978193	0
7271.05	0.00860339	-0.00980804	0

File: 2024-04-22_SEIDEP-5_T-cell_Li-Cu_1-mm-PP-spacer_75muL-4MLiFSI-DME_inside-glovebox_03_CP_C05.txt
time/s	Ewe/V	I/mA	error
7271.05	-0.0352959	-0.195996	0
7271.06	-0.0398238	-0.196001	0
7271.06	-0.0431481	-0.196001	0
7271.06	-0.0472748	-0.196003	0
7271.06	-0.0509048	-0.195999	0
7271.06	-0.0541909	-0.196	0
7271.06	-0.0577062	-0.195998	0
7271.07	-0.0614509	-0.195999	0
7271.07	-0.0650235	-0.196002	0
7271.07	-0.0682905	-0.195997	0
7271.07	-0.0714619	-0.195993	0
7271.08	-0.07492	-0.196002	0
7271.08	-0.0783589	-0.196002	0
7271.08	-0.0816832	-0.195991	0
7271.09	-0.0851603	-0.195999	0
7271.09	-0.0885611	-0.196003	0
7271.09	-0.0920955	-0.196004	0
7271.1	-0.0952478	-0.196	0
7271.1	-0.0984957	-0.195999	0
7271.1	-0.101724	-0.195999	0
7271.11	-0.104972	-0.196	0
7271.11	-0.108144	-0.196002	0
7271.11	-0.11164	-0.195999	0
7271.12	-0.114831	-0.196005	0
7271.12	-0.117945	-0.195992	0
7271.13	-0.121269	-0.195994	0
7271.13	-0.124517	-0.196001	0
7271.14	-0.12765	-0.195998	0
7271.14	-0.131089	-0.195998	0
7271.15	-0.134146	-0.195999	0
7271.15	-0.137489	-0.196005	0
7271.16	-0.140661	-0.195996	0
7271.17	-0.143966	-0.196003	0
7271.17	-0.147195	-0.195996	0
7271.18	-0.15029	-0.196001	0
7271.19	-0.153499	-0.196006	0
7271.2	-0.156862	-0.195999	0
7271.2	-0.160129	-0.196004	0
7271.21	-0.163434	-0.196001	0
7271.22	-0.166586	-0.195999	0
7271.23	-0.169777	-0.196002	0
7271.24	-0.172968	-0.195998	0
7271.25	-0.176063	-0.196004	0
7271.27	-0.179177	-0.196	0
7271.28	-0.182444	-0.196001	0
7271.29	-0.185692	-0.196001	0
7271.31	-0.188825	-0.196005	0
7271.33	-0.192035	-0.196001	0
7271.35	-0.195168	-0.195999	0
7271.37	-0.198301	-0.196001	0
7271.39	-0.201339	-0.195999	0
7271.43	-0.204491	-0.196	0
7271.52	-0.203478	-0.196008	0
7271.54	-0.200383	-0.196005	0
7271.57	-0.197193	-0.196003	0
7271.58	-0.193869	-0.195998	0
7271.6	-0.190678	-0.196	0
7271.61	-0.187621	-0.196001	0
7271.63	-0.184507	-0.196001	0
7271.64	-0.181164	-0.195999	0
7271.65	-0.177878	-0.196002	0
7271.67	-0.17463	-0.195999	0
7271.68	-0.171535	-0.196003	0
7271.69	-0.16844	-0.195999	0
7271.7	-0.165192	-0.196003	0
7271.72	-0.162116	-0.195998	0
7271.73	-0.159002	-0.196003	0
7271.75	-0.155849	-0.196002	0
7271.77	-0.152697	-0.196001	0
7271.79	-0.149545	-0.196004	0
7271.81	-0.14645	-0.196003	0
7271.83	-0.143278	-0.195997	0
7271.85	-0.140126	-0.195999	0
7271.88	-0.137031	-0.195997	0
7271.91	-0.133898	-0.196006	0
7271.95	-0.130764	-0.196003	0
7271.99	-0.127612	-0.196	0
7272.04	-0.124498	-0.195994	0
7272.11	-0.121307	-0.196	0
7272.2	-0.118212	-0.196002	0
7272.34	-0.115079	-0.195999	0
7272.54	-0.112003	-0.195999	0
7272.91	-0.108889	-0.195998	0
7273.79	-0.105813	-0.195996	0
7276.12	-0.102775	-0.196004	0
7279.81	-0.0996993	-0.196002	0
7284.19	-0.0966234	-0.195998	0
7288.9	-0.0935857	-0.196002	0
7294.44	-0.0905289	-0.195999	0
7301.01	-0.0874721	-0.195996	0
7309.77	-0.0843579	-0.196005	0
7321.22	-0.081282	-0.196003	0
7335.75	-0.0784735	-0.196004	0
7350.75	-0.0764293	-0.195998	0
7365.75	-0.0750346	-0.196008	0
7380.75	-0.0742131	-0.196001	0
7395.75	-0.0736399	-0.195996	0
7410.75	-0.0732196	-0.195994	0
7425.75	-0.0729713	-0.195998	0
7440.75	-0.0728375	-0.195996	0
7455.75	-0.0726847	-0.196004	0
7470.75	-0.0726656	-0.195996	0
7485.75	-0.0725509	-0.196001	0
7500.75	-0.07257	-0.196001	0
7515.75	-0.0724363	-0.196004	0
7530.75	-0.07257	-0.196007	0
7545.75	-0.0726656	-0.196	0
7560.75	-0.0726656	-0.196	0
7575.75	-0.0728184	-0.196003	0
7590.75	-0.0727229	-0.196	0
7605.75	-0.0727611	-0.196006	0
7620.75	-0.0726656	-0.195998	0
7635.75	-0.0727611	-0.196005	0
7650.75	-0.0729713	-0.196008	0
7665.75	-0.0729713	-0.196003	0
7680.75	-0.0729713	-0.196006	0
7695.75	-0.0729713	-0.195994	0
7710.75	-0.073105	-0.196003	0
7725.75	-0.073105	-0.196003	0
7740.75	-0.0731241	-0.196003	0
7755.75	-0.072933	-0.196001	0
7770.75	-0.0731432	-0.196005	0
7785.75	-0.0730477	-0.196	0
7800.75	-0.0731241	-0.19601	0
7815.75	-0.0730668	-0.196001	0
7830.75	-0.0730286	-0.196003	0
7845.75	-0.0729713	-0.196001	0
7860.75	-0.0730286	-0.196007	0
7875.75	-0.0729522	-0.196005	0
7890.75	-0.0729139	-0.196001	0
7905.75	-0.0728184	-0.196001	0
7920.75	-0.0728375	-0.196001	0
7935.75	-0.0727229	-0.195999	0
7950.75	-0.072742	-0.195998	0
7965.75	-0.0726465	-0.196001	0
7980.75	-0.0725509	-0.195998	0
7995.75	-0.0726274	-0.196004	0
8010.75	-0.0726083	-0.196003	0
8025.75	-0.0723599	-0.196005	0
8040.75	-0.0723599	-0.196006	0
8055.75	-0.0722644	-0.196	0
8070.75	-0.0721688	-0.195999	0
8085.75	-0.0719778	-0.196006	0
8100.75	-0.0720733	-0.195997	0
8115.75	-0.0718632	-0.196002	0
8130.75	-0.0717485	-0.196004	0
8145.75	-0.0717867	-0.196002	0
8160.75	-0.0717485	-0.195998	0
8175.75	-0.0715957	-0.196	0
8190.75	-0.0715766	-0.195998	0
8205.75	-0.0716721	-0.195996	0
8220.75	-0.0714428	-0.196001	0
8235.75	-0.0715193	-0.196001	0
8250.75	-0.0713091	-0.196002	0
8265.75	-0.07129	-0.196002	0
8280.75	-0.0711372	-0.196002	0
8295.75	-0.07129	-0.195998	0
8310.75	-0.0711181	-0.195998	0
8325.75	-0.0710034	-0.196005	0
8340.75	-0.0710416	-0.196005	0
8355.75	-0.0707742	-0.196006	0
8370.75	-0.0710034	-0.196001	0
8385.75	-0.0710034	-0.196002	0
8400.75	-0.0707168	-0.196008	0
8415.75	-0.0706977	-0.196004	0
8430.75	-0.0707551	-0.196005	0
8445.75	-0.0706595	-0.196	0
8460.75	-0.0706022	-0.196002	0
8475.75	-0.0706786	-0.196007	0
8490.75	-0.0706404	-0.196003	0
8505.75	-0.0704303	-0.195997	0
8520.75	-0.0705449	-0.19601	0
8535.75	-0.070373	-0.195999	0
8550.75	-0.0703347	-0.195998	0
8565.75	-0.070201	-0.195996	0
8580.75	-0.0703921	-0.196006	0
8595.75	-0.0701628	-0.196003	0
8610.75	-0.0703347	-0.196002	0
8625.75	-0.0701628	-0.195996	0
8640.75	-0.0702392	-0.196002	0
8655.75	-0.0701055	-0.196003	0
8670.75	-0.0701819	-0.196	0
8685.75	-0.0701055	-0.196006	0
8700.75	-0.0700291	-0.196003	0
8715.75	-0.07001	-0.195999	0
8730.75	-0.0700482	-0.195998	0
8745.75	-0.0699717	-0.195999	0
8760.75	-0.0700482	-0.195998	0
8775.75	-0.0699717	-0.195999	0
8790.75	-0.0698762	-0.195995	0
8805.75	-0.0699526	-0.196001	0
8820.75	-0.0699144	-0.195999	0
8835.75	-0.0697425	-0.196006	0
8850.75	-0.0697234	-0.196004	0
8865.75	-0.0697043	-0.196001	0
8880.75	-0.0696852	-0.195996	0
8895.75	-0.0697043	-0.195999	0
8910.75	-0.0697616	-0.196001	0
8925.75	-0.0695705	-0.195999	0
8940.75	-0.0695514	-0.195999	0
8955.75	-0.0696279	-0.195997	0
8970.75	-0.0696087	-0.196001	0
8985.75	-0.0694941	-0.196001	0
9000.75	-0.0694941	-0.196002	0
9015.75	-0.069475	-0.195999	0
9030.75	-0.0694177	-0.196003	0
9045.75	-0.0694559	-0.196003	0
9060.75	-0.0693795	-0.195998	0
9071.05	-0.069475	-0.195994	0